data_gyro_x,data_accel_y,data_pitch,data_accel_z,data_accel_x,data_mag_z,timestamp,data_yaw,data_mag_x,sensor,data_mag_y,data_gyro_z,data_gyro_y,data_roll
0.844879150390625,0.027099609375,-9.993599891662598,0.94451904296875,0.16650390625,-0.20930001139640808,2017-03-27 14:50:22.798159,-173.24195861816406,0.5600000023841858,inertial,-0.0663600042462349,-0.276641845703125,0.70281982421875,1.6434473991394043
0.725250244140625,0.0262451171875,-10.06655502319336,0.94305419921875,0.16748046875,-0.20622000098228455,2017-03-27 14:50:22.825308,-173.37271118164062,0.5639200210571289,inertial,-0.06552000343799591,-0.067291259765625,1.016845703125,1.5941251516342163
1.07666015625,0.0205078125,-10.138784408569336,0.9404296875,0.168212890625,-0.21209999918937683,2017-03-27 14:50:22.876280,-172.78201293945312,0.5626600384712219,inertial,-0.071260005235672,-0.067291259765625,0.665435791015625,1.2492426633834839
1.233673095703125,0.0211181640625,-10.014182090759277,0.94580078125,0.16705322265625,-0.20734000205993652,2017-03-27 14:50:22.896155,-173.01780700683594,0.5670000314712524,inertial,-0.06943999975919724,0.097198486328125,0.770111083984375,1.2791072130203247
1.00189208984375,0.012939453125,-10.329501152038574,0.9368896484375,0.1707763671875,-0.2079000025987625,2017-03-27 14:50:22.916088,-173.10313415527344,0.5671400427818298,inertial,-0.06859999895095825,-1.9140625,0.7476806640625,0.7912660241127014
1.308441162109375,0.0137939453125,-10.269702911376953,0.93975830078125,0.1702880859375,-0.20958000421524048,2017-03-27 14:50:22.957183,-172.90122985839844,0.5643399953842163,inertial,-0.07028000056743622,-0.171966552734375,0.874786376953125,0.840937614440918
1.039276123046875,0.021240234375,-9.87386417388916,0.9384765625,0.16339111328125,-0.20412001013755798,2017-03-27 14:50:22.980111,-172.75442504882812,0.5649000406265259,inertial,-0.07181999832391739,-0.179443359375,0.85235595703125,1.2965353727340698
1.009368896484375,0.02362060546875,-10.426711082458496,0.9420166015625,0.17340087890625,-0.20747999846935272,2017-03-27 14:50:23.005086,-173.0477294921875,0.5660200119018555,inertial,-0.06902000308036804,-0.179443359375,0.755157470703125,1.436362624168396
0.6878662109375,0.02655029296875,-9.977992057800293,0.94049072265625,0.16552734375,-0.20622000098228455,2017-03-27 14:50:23.027850,-173.0734405517578,0.5623800158500671,inertial,-0.06831999868154526,-0.276641845703125,0.418701171875,1.6170450448989868
1.547698974609375,0.01531982421875,-10.206107139587402,0.9385986328125,0.16900634765625,-0.21028000116348267,2017-03-27 14:50:23.048631,-173.27699279785156,0.5653200149536133,inertial,-0.06664000451564789,0.16448974609375,0.829925537109375,0.935099720954895
0.94207763671875,0.0172119140625,-10.11465072631836,0.94073486328125,0.1678466796875,-0.21084000170230865,2017-03-27 14:50:23.067790,-173.04635620117188,0.5647600293159485,inertial,-0.06887999922037125,-0.097198486328125,0.83740234375,1.0481805801391602
0.979461669921875,0.0208740234375,-10.178874015808105,0.94207763671875,0.169189453125,-0.21658000349998474,2017-03-27 14:50:23.087291,-173.3223876953125,0.5632200241088867,inertial,-0.0659400001168251,-0.0299072265625,0.897216796875,1.269319772720337
1.173858642578125,0.01513671875,-9.966390609741211,0.94012451171875,0.16522216796875,-0.21140000224113464,2017-03-27 14:50:23.107249,-173.06602478027344,0.5686799883842468,inertial,-0.06915999948978424,-0.127105712890625,0.657958984375,0.9224258661270142
0.94207763671875,0.0191650390625,-10.275293350219727,0.941162109375,0.170654296875,-0.2039799988269806,2017-03-27 14:50:23.136941,-173.26707458496094,0.5644800066947937,inertial,-0.06664000451564789,-0.31402587890625,0.560760498046875,1.1665621995925903
0.79254150390625,0.0184326171875,-10.079424858093262,0.94097900390625,0.16729736328125,-0.21182000637054443,2017-03-27 14:50:23.187011,-173.28933715820312,0.5651800036430359,inertial,-0.06650000065565109,-0.216827392578125,0.7476806640625,1.1222100257873535
1.03179931640625,0.02117919921875,-10.053557395935059,0.9420166015625,0.16705322265625,-0.21140000224113464,2017-03-27 14:50:23.236139,-173.1521759033203,0.5630800127983093,inertial,-0.06762000173330307,0,0.70281982421875,1.287954330444336
1.188812255859375,0.02142333984375,-9.978281021118164,0.94024658203125,0.16546630859375,-0.21026626229286194,2017-03-27 14:50:23.287212,-172.92381286621094,0.5661600232124329,inertial,-0.07028000056743622,-0.11962890625,0.7177734375,1.3052476644515991
0.94207763671875,0.017822265625,-10.069250106811523,0.9429931640625,0.16748046875,-0.2090200036764145,2017-03-27 14:50:23.338769,-172.97486877441406,0.5634999871253967,inertial,-0.06943999975919724,-0.171966552734375,0.70281982421875,1.0827428102493286
0.8673095703125,0.02069091796875,-10.067378997802734,0.9393310546875,0.16680908203125,-0.2034199982881546,2017-03-27 14:50:23.389480,-173.34463500976562,0.5639200210571289,inertial,-0.0658000037074089,0.037384033203125,0.64300537109375,1.2618666887283325
1.024322509765625,0.01715087890625,-10.174964904785156,0.941162109375,0.1689453125,-0.21140000224113464,2017-03-27 14:50:23.445242,-172.67958068847656,0.5656000375747681,inertial,-0.07265999913215637,0.25421142578125,0.657958984375,1.0439903736114502
0.91217041015625,0.0235595703125,-10.259364128112793,0.944580078125,0.1710205078125,-0.20566000044345856,2017-03-27 14:50:23.496359,-173.21136474609375,0.566860020160675,inertial,-0.06748000532388687,-0.052337646484375,0.94207763671875,1.4287662506103516
0.94207763671875,0.02008056640625,-10.19703197479248,0.94207763671875,0.16949462890625,-0.20034000277519226,2017-03-27 14:50:23.545957,-172.85231018066406,0.5660200119018555,inertial,-0.070980004966259,0.01495361328125,0.620574951171875,1.2210856676101685
0.8074951171875,0.02154541015625,-10.42591381072998,0.94744873046875,0.17437744140625,-0.21168000996112823,2017-03-27 14:50:23.593203,-173.1572265625,0.5634999871253967,inertial,-0.06762000173330307,-0.13458251953125,0.934600830078125,1.302707314491272
1.07666015625,0.02459716796875,-10.338175773620605,0.94622802734375,0.17266845703125,-0.21503999829292297,2017-03-27 14:50:23.644352,-173.0985107421875,0.5656000375747681,inertial,-0.06846000254154205,-0.3887939453125,0.710296630859375,1.4890666007995605
0.97198486328125,0.021240234375,-10.188281059265137,0.94219970703125,0.16937255859375,-0.20509999990463257,2017-03-27 14:50:23.704442,-172.96986389160156,0.5619600415229797,inertial,-0.06930000334978104,0.007476806640625,0.800018310546875,1.2914137840270996
1.054229736328125,0.02362060546875,-10.16777515411377,0.9423828125,0.1690673828125,-0.21265999972820282,2017-03-27 14:50:23.750780,-172.7802276611328,0.5625200271606445,inertial,-0.071260005235672,-0.19439697265625,0.73272705078125,1.4358047246932983
1.0467529296875,0.017578125,-10.177002906799316,0.93994140625,0.16876220703125,-0.20496000349521637,2017-03-27 14:50:23.806433,-172.583251953125,0.5613999962806702,inertial,-0.07308000326156616,-0.276641845703125,0.740203857421875,1.071380615234375
1.069183349609375,0.01715087890625,-10.155946731567383,0.94091796875,0.1685791015625,-0.2032800018787384,2017-03-27 14:50:23.860321,-173.0563201904297,0.5609800219535828,inertial,-0.06831999868154526,-0.16448974609375,0.500946044921875,1.0442612171173096
0.8074951171875,0.0234375,-10.132894515991211,0.9443359375,0.1688232421875,-0.20636001229286194,2017-03-27 14:50:23.910193,-173.0760498046875,0.5649000406265259,inertial,-0.06859999895095825,-0.097198486328125,0.814971923828125,1.4217337369918823
1.18133544921875,0.02001953125,-10.22156047821045,0.942138671875,0.169921875,-0.2077600061893463,2017-03-27 14:50:23.951379,-173.72845458984375,0.5643399953842163,inertial,-0.06202000007033348,-0.291595458984375,0.710296630859375,1.2172964811325073
0.919647216796875,0.01849365234375,-10.552213668823242,0.942138671875,0.175537109375,-0.20930001139640808,2017-03-27 14:50:24.007607,-172.9364013671875,0.5626600384712219,inertial,-0.06972000002861023,-0.082244873046875,0.85235595703125,1.1245394945144653
0.8673095703125,0.0194091796875,-10.391189575195312,0.94207763671875,0.17279052734375,-0.19964000582695007,2017-03-27 14:50:24.053750,-172.83982849121094,0.561680018901825,inertial,-0.07056000083684921,-0.201873779296875,0.6878662109375,1.1802709102630615
1.15142822265625,0.01885986328125,-10.096362113952637,0.94244384765625,0.1678466796875,-0.20692001283168793,2017-03-27 14:50:24.118349,-173.0747528076172,0.5636399984359741,inertial,-0.06846000254154205,-0.01495361328125,0.889739990234375,1.146430492401123
1.323394775390625,0.021484375,-10.360703468322754,0.9415283203125,0.17218017578125,-0.203000009059906,2017-03-27 14:50:24.155111,-172.6098175048828,0.5656000375747681,inertial,-0.07336000353097916,-0.1495361328125,0.61309814453125,1.3071836233139038
0.8074951171875,0.01593017578125,-10.171688079833984,0.94183349609375,0.16900634765625,-0.20944000780582428,2017-03-27 14:50:24.208461,-173.0518341064453,0.5640600323677063,inertial,-0.06874000281095505,-0.10467529296875,0.85235595703125,0.9690086841583252
1.069183349609375,0.02044677734375,-10.118841171264648,0.93890380859375,0.1676025390625,-0.20258000493049622,2017-03-27 14:50:24.258594,-173.01405334472656,0.5632200241088867,inertial,-0.07056000083684921,-0.13458251953125,1.1962890625,1.2475494146347046
0.859832763671875,0.02508544921875,-10.192215919494629,0.94512939453125,0.16998291015625,-0.19922000169754028,2017-03-27 14:50:24.308442,-173.05152893066406,0.559440016746521,inertial,-0.06818000227212906,-0.22430419921875,0.8074951171875,1.5203770399093628
0.91217041015625,0.016357421875,-9.960777282714844,0.9423828125,0.16552734375,-0.2032800018787384,2017-03-27 14:50:24.371652,-173.19830322265625,0.5622400045394897,inertial,-0.06706000119447708,-0.0897216796875,0.800018310546875,0.994412362575531
0.979461669921875,0.01708984375,-10.344099044799805,0.9398193359375,0.17156982421875,-0.20762000977993011,2017-03-27 14:50:24.413495,-172.6711883544922,0.561680018901825,inertial,-0.07224000245332718,-0.157012939453125,1.136474609375,1.0417619943618774
0.8673095703125,0.02264404296875,-10.083582878112793,0.94049072265625,0.16729736328125,-0.2039799988269806,2017-03-27 14:50:24.461534,-172.83108520507812,0.5620999932289124,inertial,-0.07070000469684601,-0.186920166015625,0.777587890625,1.379234790802002
1.00189208984375,0.02471923828125,-10.26917839050293,0.9453125,0.17132568359375,-0.21209999918937683,2017-03-27 14:50:24.512228,-172.59364318847656,0.5611200332641602,inertial,-0.07293999940156937,-0.22430419921875,0.889739990234375,1.4979017972946167
0.874786376953125,0.01519775390625,-10.120916366577148,0.93743896484375,0.1673583984375,-0.20188000798225403,2017-03-27 14:50:24.592247,-172.75596618652344,0.5639200210571289,inertial,-0.07168000191450119,-0.0299072265625,0.904693603515625,0.9287974238395691
0.979461669921875,0.01629638671875,-10.260863304138184,0.94189453125,0.1705322265625,-0.2129400074481964,2017-03-27 14:50:24.619054,-173.08197021484375,0.5630800127983093,inertial,-0.06831999868154526,-0.052337646484375,0.91217041015625,0.9912161231040955
0.82244873046875,0.0216064453125,-10.028663635253906,0.943359375,0.1668701171875,-0.20272000133991241,2017-03-27 14:50:24.682472,-172.85397338867188,0.5639200210571289,inertial,-0.07070000469684601,-0.351409912109375,0.91217041015625,1.3120574951171875
0.904693603515625,0.0205078125,-10.180534362792969,0.939208984375,0.168701171875,-0.20524001121520996,2017-03-27 14:50:24.717985,-173.22862243652344,0.5671400427818298,inertial,-0.06734000146389008,-0.3887939453125,0.95703125,1.2508658170700073
0.800018310546875,0.0244140625,-10.236831665039062,0.942626953125,0.1702880859375,-0.21182000637054443,2017-03-27 14:50:24.770211,-173.3048553466797,0.570080041885376,inertial,-0.06692000478506088,-0.336456298828125,0.9271240234375,1.4836305379867554
0.770111083984375,0.02880859375,-10.301151275634766,0.94622802734375,0.17205810546875,-0.2136400043964386,2017-03-27 14:50:24.819950,-173.5055694580078,0.5706400275230408,inertial,-0.06496000289916992,-0.485992431640625,0.919647216796875,1.7438725233078003
1.5850830078125,0.016357421875,-10.297381401062012,0.93511962890625,0.169921875,-0.2139200121164322,2017-03-27 14:50:24.870335,-172.97467041015625,0.5646200180053711,inertial,-0.06958000361919403,0.13458251953125,1.00189208984375,1.0021345615386963
1.136474609375,0.01611328125,-10.50290584564209,0.9384765625,0.17401123046875,-0.21209999918937683,2017-03-27 14:50:24.927772,-173.5271453857422,0.5639200210571289,inertial,-0.06397999823093414,-0.179443359375,0.949554443359375,0.9836498498916626
1.054229736328125,0.02203369140625,-9.754312515258789,0.9384765625,0.161376953125,-0.2129400074481964,2017-03-27 14:50:24.972284,-173.14710998535156,0.5626600384712219,inertial,-0.06762000173330307,-0.112152099609375,0.755157470703125,1.3449517488479614
1.136474609375,0.018798828125,-9.939756393432617,0.945068359375,0.1656494140625,-0.20720000565052032,2017-03-27 14:50:25.024864,-173.14825439453125,0.5639200210571289,inertial,-0.06775999814271927,-0.321502685546875,0.904693603515625,1.1395487785339355
0.949554443359375,0.01806640625,-10.138123512268066,0.94293212890625,0.16864013671875,-0.20636001229286194,2017-03-27 14:50:25.073865,-173.2180633544922,0.5615400075912476,inertial,-0.06678000092506409,-0.0897216796875,0.95703125,1.0976423025131226
0.95703125,0.0203857421875,-10.266581535339355,0.942626953125,0.1707763671875,-0.2132200002670288,2017-03-27 14:50:25.125009,-173.07435607910156,0.5647600293159485,inertial,-0.06859999895095825,-0.142059326171875,1.054229736328125,1.2389153242111206
1.054229736328125,0.0205078125,-10.194025993347168,0.93963623046875,0.16900634765625,-0.21126000583171844,2017-03-27 14:50:25.176437,-173.1689910888672,0.5644800066947937,inertial,-0.06762000173330307,-0.1495361328125,1.009368896484375,1.25029718875885
1.039276123046875,0.02325439453125,-10.271337509155273,0.9404296875,0.17047119140625,-0.21056000888347626,2017-03-27 14:50:25.232483,-172.9733428955078,0.5622400045394897,inertial,-0.06930000334978104,-0.25421142578125,0.889739990234375,1.4164878129959106
1.016845703125,0.01824951171875,-10.143871307373047,0.9423828125,0.16864013671875,-0.20552000403404236,2017-03-27 14:50:25.278762,-173.31163024902344,0.5634999871253967,inertial,-0.0660800039768219,-0.142059326171875,0.94207763671875,1.1094104051589966
1.016845703125,0.02130126953125,-10.298346519470215,0.941650390625,0.171142578125,-0.203000009059906,2017-03-27 14:50:25.329259,-173.0364227294922,0.5627999901771545,inertial,-0.06874000281095505,-0.10467529296875,1.039276123046875,1.2958787679672241
1.03179931640625,0.0203857421875,-10.113088607788086,0.941162109375,0.16790771484375,-0.21252000331878662,2017-03-27 14:50:25.380633,-172.8188018798828,0.5622400045394897,inertial,-0.07084000110626221,-0.186920166015625,0.844879150390625,1.2408429384231567
0.88226318359375,0.0184326171875,-10.195051193237305,0.93890380859375,0.16888427734375,-0.21209999918937683,2017-03-27 14:50:25.431252,-173.1088104248047,0.5618200302124023,inertial,-0.06790000200271606,-0.01495361328125,0.85235595703125,1.1246898174285889
1.099090576171875,0.01763916015625,-10.106827735900879,0.93975830078125,0.16754150390625,-0.2080399990081787,2017-03-27 14:50:25.488715,-173.1398162841797,0.5632200241088867,inertial,-0.06775999814271927,-0.366363525390625,0.889739990234375,1.0753092765808105
0.874786376953125,0.02081298828125,-10.041037559509277,0.9390869140625,0.16632080078125,-0.21182000637054443,2017-03-27 14:50:25.532291,-173.4327850341797,0.558180034160614,inertial,-0.06425999850034714,-0.142059326171875,0.695343017578125,1.2696387767791748
0.9271240234375,0.01763916015625,-10.149560928344727,0.94049072265625,0.16839599609375,-0.20930001139640808,2017-03-27 14:50:25.584673,-173.25442504882812,0.5598599910736084,inertial,-0.0662200003862381,-0.171966552734375,1.09161376953125,1.0744719505310059
1.278533935546875,0.0201416015625,-10.049007415771484,0.9400634765625,0.1666259765625,-0.21224001049995422,2017-03-27 14:50:25.634273,-173.1420440673828,0.5622400045394897,inertial,-0.06762000173330307,-0.112152099609375,0.40374755859375,1.2274194955825806
1.278533935546875,0.0220947265625,-9.720237731933594,0.9439697265625,0.1617431640625,-0.20440000295639038,2017-03-27 14:50:25.686192,-172.81349182128906,0.5618200302124023,inertial,-0.07084000110626221,-0.07476806640625,0.7177734375,1.3408305644989014
1.069183349609375,0.0181884765625,-10.195591926574707,0.9375,0.16864013671875,-0.20944000780582428,2017-03-27 14:50:25.745033,-173.1877899169922,0.5590200424194336,inertial,-0.06678000092506409,-0.059814453125,0.67291259765625,1.111458420753479
0.91217041015625,0.01922607421875,-10.247153282165527,0.94110107421875,0.170166015625,-0.20720000565052032,2017-03-27 14:50:25.790956,-172.772705078125,0.5597200393676758,inertial,-0.070980004966259,-0.052337646484375,0.919647216796875,1.1703522205352783
0.934600830078125,0.01959228515625,-10.15958309173584,0.940185546875,0.16851806640625,-0.20986001193523407,2017-03-27 14:50:25.839488,-172.9708251953125,0.5563600063323975,inertial,-0.06859999895095825,-0.22430419921875,0.800018310546875,1.1937992572784424
1.00189208984375,0.020263671875,-10.28394603729248,0.94403076171875,0.17132568359375,-0.21224001049995422,2017-03-27 14:50:25.891615,-172.73910522460938,0.5593000054359436,inertial,-0.071260005235672,-0.059814453125,0.979461669921875,1.2296682596206665
1.24114990234375,0.01702880859375,-9.954277038574219,0.94195556640625,0.16534423828125,-0.2143400013446808,2017-03-27 14:50:25.941661,-173.08749389648438,0.5623800158500671,inertial,-0.06818000227212906,0.082244873046875,0.67291259765625,1.0356885194778442
1.016845703125,0.02398681640625,-10.358942031860352,0.9439697265625,0.172607421875,-0.20958000421524048,2017-03-27 14:50:25.992865,-173.0908966064453,0.5626600384712219,inertial,-0.06818000227212906,-0.246734619140625,0.97198486328125,1.4556056261062622
1.30096435546875,0.016357421875,-9.754650115966797,0.93536376953125,0.16082763671875,-0.21112000942230225,2017-03-27 14:50:26.044041,-173.2333526611328,0.5651800036430359,inertial,-0.06706000119447708,-0.157012939453125,0.95703125,1.0018730163574219
1.517791748046875,0.01715087890625,-9.819013595581055,0.93756103515625,0.16229248046875,-0.21476000547409058,2017-03-27 14:50:26.099114,-173.26121520996094,0.5627999901771545,inertial,-0.06650000065565109,-0.276641845703125,0.88226318359375,1.047999382019043
0.710296630859375,0.020751953125,-10.137178421020508,0.94091796875,0.16827392578125,-0.2129400074481964,2017-03-27 14:50:26.145881,-173.1787109375,0.559440016746521,inertial,-0.06692000478506088,-0.590667724609375,0.575714111328125,1.2634540796279907
0.605621337890625,0.018798828125,-10.215286254882812,0.94207763671875,0.1697998046875,-0.20664000511169434,2017-03-27 14:50:26.197066,-172.67816162109375,0.5665799975395203,inertial,-0.07280000299215317,-0.500946044921875,0.725250244140625,1.1431654691696167
1.039276123046875,0.01434326171875,-9.956538200378418,0.93621826171875,0.16436767578125,-0.20482000708580017,2017-03-27 14:50:26.247752,-173.1420440673828,0.5622400045394897,inertial,-0.06762000173330307,-0.1495361328125,0.859832763671875,0.8777270317077637
1.0467529296875,0.01373291015625,-10.024130821228027,0.939453125,0.16607666015625,-0.20496000349521637,2017-03-27 14:50:26.299121,-172.85914611816406,0.5609800219535828,inertial,-0.07028000056743622,-0.396270751953125,0.725250244140625,0.837489128112793
0.859832763671875,0.0252685546875,-9.791120529174805,0.9447021484375,0.1630859375,-0.20509999990463257,2017-03-27 14:50:26.349946,-173.32177734375,0.5595800280570984,inertial,-0.06552000343799591,-0.186920166015625,0.70281982421875,1.5321617126464844
0.91217041015625,0.0184326171875,-10.042314529418945,0.9417724609375,0.16680908203125,-0.2087400108575821,2017-03-27 14:50:26.402946,-173.60499572753906,0.5620999932289124,inertial,-0.06300000101327896,-0.725250244140625,0.814971923828125,1.1212648153305054
0.979461669921875,0.01788330078125,-10.350170135498047,0.9395751953125,0.171630859375,-0.2087400108575821,2017-03-27 14:50:26.453262,-173.25123596191406,0.5619600415229797,inertial,-0.06650000065565109,-1.1065673828125,0.59814453125,1.090401291847229
0.964508056640625,0.01885986328125,-9.979120254516602,0.94195556640625,0.165771484375,-0.21056000888347626,2017-03-27 14:50:26.502946,-172.90330505371094,0.5577600002288818,inertial,-0.06943999975919724,-0.620574951171875,0.59814453125,1.1470246315002441
1.218719482421875,0.014404296875,-9.703164100646973,0.9415283203125,0.1610107421875,-0.21084000170230865,2017-03-27 14:50:26.558644,-173.47340393066406,0.5665799975395203,inertial,-0.06481999903917313,0.04486083984375,0.9271240234375,0.8764909505844116
0.859832763671875,0.02508544921875,-10.196725845336914,0.9447021484375,0.16998291015625,-0.21168000996112823,2017-03-27 14:50:26.605394,-173.31570434570312,0.5650399923324585,inertial,-0.0662200003862381,0.052337646484375,0.545806884765625,1.521064281463623
0.859832763671875,0.01983642578125,-10.023396492004395,0.9407958984375,0.16632080078125,-0.21559999883174896,2017-03-27 14:50:26.661491,-173.5597686767578,0.5630800127983093,inertial,-0.06356000155210495,-0.112152099609375,0.8673095703125,1.2078869342803955
0.770111083984375,0.02020263671875,-10.29598617553711,0.94122314453125,0.1710205078125,-0.21014000475406647,2017-03-27 14:50:26.709613,-173.49436950683594,0.5586000084877014,inertial,-0.06370000541210175,-0.904693603515625,0.97198486328125,1.229621410369873
0.83740234375,0.0162353515625,-10.044650077819824,0.94158935546875,0.16680908203125,-0.2090200036764145,2017-03-27 14:50:26.759716,-173.21670532226562,0.5637800097465515,inertial,-0.06706000119447708,-0.725250244140625,1.143951416015625,0.9878244400024414
1.12152099609375,0.0242919921875,-10.137467384338379,0.93841552734375,0.1678466796875,-0.20734000205993652,2017-03-27 14:50:26.809886,-173.23956298828125,0.5609800219535828,inertial,-0.06650000065565109,-0.19439697265625,0.61309814453125,1.4828376770019531
1.3458251953125,0.02178955078125,-9.929320335388184,0.93206787109375,0.1632080078125,-0.2090200036764145,2017-03-27 14:50:26.865199,-173.1177978515625,0.5613999962806702,inertial,-0.06775999814271927,-0.25421142578125,0.5682373046875,1.3391964435577393
0.79254150390625,0.02691650390625,-10.353513717651367,0.94439697265625,0.172607421875,-0.2081800103187561,2017-03-27 14:50:26.946239,-173.40335083007812,0.5593000054359436,inertial,-0.06468000262975693,-2.13836669921875,0.306549072265625,1.6325600147247314
0.710296630859375,0.01995849609375,-9.99120044708252,0.94354248046875,0.166259765625,-0.2084600031375885,2017-03-27 14:50:26.974033,-173.58297729492188,0.5613999962806702,inertial,-0.06314000487327576,-1.95892333984375,0.4486083984375,1.2117812633514404
1.099090576171875,0.01678466796875,-10.108169555664062,0.940673828125,0.167724609375,-0.21056000888347626,2017-03-27 14:50:27.017027,-173.35691833496094,0.5577600002288818,inertial,-0.06496000289916992,-1.00189208984375,0.979461669921875,1.0222338438034058
0.97198486328125,0.0159912109375,-9.48454475402832,0.93804931640625,0.15673828125,-0.2132200002670288,2017-03-27 14:50:27.068406,-173.44288635253906,0.5639200210571289,inertial,-0.06481999903917313,-0.49346923828125,0.83740234375,0.9766439199447632
0.73272705078125,0.02593994140625,-11.21090316772461,0.94287109375,0.18695068359375,-0.2090200036764145,2017-03-27 14:50:27.118019,-173.0926055908203,0.5627999901771545,inertial,-0.06818000227212906,-0.04486083984375,0.55328369140625,1.5759040117263794
0.770111083984375,0.01788330078125,-10.681533813476562,0.940185546875,0.1773681640625,-0.21126000583171844,2017-03-27 14:50:27.168419,-173.46409606933594,0.5620999932289124,inertial,-0.06440000236034393,0.34393310546875,0.949554443359375,1.089693546295166
1.1663818359375,0.022216796875,-9.887322425842285,0.945556640625,0.16485595703125,-0.2088800072669983,2017-03-27 14:50:27.218468,-173.5072784423828,0.5597200393676758,inertial,-0.06370000541210175,0.665435791015625,1.00189208984375,1.3459738492965698
1.09161376953125,0.02740478515625,-9.924555778503418,0.94110107421875,0.16473388671875,-0.21559999883174896,2017-03-27 14:50:27.279130,-173.98056030273438,0.5602800250053406,inertial,-0.05908000096678734,0.4486083984375,0.897216796875,1.667976975440979
1.278533935546875,0.0142822265625,-10.196934700012207,0.93438720703125,0.1680908203125,-0.2037000060081482,2017-03-27 14:50:27.320126,-174.12786865234375,0.5553799867630005,inertial,-0.057120002806186676,-0.171966552734375,0.844879150390625,0.8757050633430481
1.256103515625,0.0169677734375,-10.349946975708008,0.9412841796875,0.17193603515625,-0.20524001121520996,2017-03-27 14:50:27.370495,-173.4818115234375,0.5587400197982788,inertial,-0.06384000182151794,0.022430419921875,0.934600830078125,1.0327131748199463
0.844879150390625,0.016845703125,-9.818785667419434,0.93511962890625,0.161865234375,-0.20720000565052032,2017-03-27 14:50:27.424394,-173.2488250732422,0.5629400014877319,inertial,-0.06664000451564789,-0.441131591796875,0.94207763671875,1.0320426225662231
0.844879150390625,0.018798828125,-9.959041595458984,0.9425048828125,0.16552734375,-0.21000000834465027,2017-03-27 14:50:27.483330,-173.70877075195312,0.5574800372123718,inertial,-0.06146000325679779,-0.007476806640625,0.919647216796875,1.142647385597229
0.949554443359375,0.0213623046875,-9.868176460266113,0.94464111328125,0.16436767578125,-0.2130800038576126,2017-03-27 14:50:27.534942,-173.50405883789062,0.559440016746521,inertial,-0.06370000541210175,0.3887939453125,1.1065673828125,1.2954775094985962
0.904693603515625,0.02484130859375,-7.805759429931641,0.9368896484375,0.12847900390625,-0.2182600051164627,2017-03-27 14:50:27.595346,-173.8764190673828,0.5611200332641602,inertial,-0.060200002044439316,1.413116455078125,1.622467041015625,1.518822193145752
1.128997802734375,0.02496337890625,-7.4453606605529785,0.95245361328125,0.12451171875,-0.2132200002670288,2017-03-27 14:50:27.628007,-173.79440307617188,0.5626600384712219,inertial,-0.061180002987384796,1.07666015625,2.669219970703125,1.5013527870178223
0.800018310546875,0.0142822265625,-9.279071807861328,0.94354248046875,0.1541748046875,-0.20944000780582428,2017-03-27 14:50:27.686526,-173.68814086914062,0.559440016746521,inertial,-0.061879999935626984,-0.545806884765625,3.45428466796875,0.8672093152999878
0.351409912109375,0.02545166015625,-10.148015022277832,0.9425048828125,0.16876220703125,-0.20664000511169434,2017-03-27 14:50:27.729753,-173.72552490234375,0.5627999901771545,inertial,-0.061879999935626984,-0.97198486328125,4.553375244140625,1.5468549728393555
1.09161376953125,0.02288818359375,-8.01803207397461,0.9373779296875,0.132080078125,-0.20482000708580017,2017-03-27 14:50:27.780018,-173.34979248046875,0.5619600415229797,inertial,-0.06552000343799591,-0.6280517578125,3.850555419921875,1.3987269401550293
3.2000732421875,-0.003173828125,-7.535946846008301,0.92181396484375,0.1219482421875,-0.20216000080108643,2017-03-27 14:50:27.830121,-173.71751403808594,0.5646200180053711,inertial,-0.06216000020503998,0.95703125,-0.336456298828125,-0.1972699910402298
0.85235595703125,0.02862548828125,-9.776521682739258,0.968017578125,0.1668701171875,-0.21070000529289246,2017-03-27 14:50:27.880697,-173.17581176757812,0.5615400075912476,inertial,-0.06720000505447388,-2.549591064453125,1.024322509765625,1.6938141584396362
1.577606201171875,-0.06219482421875,-8.870187759399414,0.9044189453125,0.1414794921875,-0.21028000116348267,2017-03-27 14:50:27.931649,-173.40182495117188,0.5627999901771545,inertial,-0.06509999930858612,-0.2392578125,0.800018310546875,-3.9339065551757812
1.79443359375,0.0242919921875,-14.122132301330566,0.94677734375,0.23828125,-0.203560009598732,2017-03-27 14:50:27.982500,-173.1789093017578,0.5688199996948242,inertial,-0.06803999841213226,0.11962890625,4.418792724609375,1.4697471857070923
-0.9869384765625,0.08306884765625,-13.685137748718262,0.97906494140625,0.2392578125,-0.20244000852108002,2017-03-27 14:50:28.033968,-173.4101104736328,0.5744200348854065,inertial,-0.0663600042462349,-0.500946044921875,2.58697509765625,4.8496503829956055
0.35888671875,0.02203369140625,-13.259489059448242,0.95965576171875,0.2261962890625,-0.20258000493049622,2017-03-27 14:50:28.088115,-173.71839904785156,0.5710600018501282,inertial,-0.06286000460386276,-1.233673095703125,2.983245849609375,1.3152797222137451
0.4486083984375,-0.00408935546875,-11.191354751586914,0.93133544921875,0.18426513671875,-0.20272000133991241,2017-03-27 14:50:28.137785,-173.51502990722656,0.5714800357818604,inertial,-0.06496000289916992,0.067291259765625,4.015045166015625,-0.25157561898231506
1.6748046875,0.04656982421875,-13.297966957092285,0.9259033203125,0.2191162109375,-0.2037000060081482,2017-03-27 14:50:28.187858,-173.43190002441406,0.5714800357818604,inertial,-0.0658000037074089,0.396270751953125,1.009368896484375,2.8793587684631348
2.99072265625,0.01092529296875,-13.930944442749023,0.92291259765625,0.22894287109375,-0.19991999864578247,2017-03-27 14:50:28.239366,-173.54171752929688,0.5664399862289429,inertial,-0.06412000209093094,-0.7177734375,-1.2860107421875,0.6782266497612
0.11962890625,0.003173828125,-11.326813697814941,0.91259765625,0.18280029296875,-0.2034199982881546,2017-03-27 14:50:28.289805,-173.61016845703125,0.5675600171089172,inertial,-0.06356000155210495,-0.40374755859375,2.549591064453125,0.19926220178604126
0.515899658203125,-0.0260009765625,-10.77997875213623,0.9263916015625,0.17645263671875,-0.20747999846935272,2017-03-27 14:50:28.343393,-174.0900115966797,0.5693800449371338,inertial,-0.05894000083208084,1.74957275390625,2.429962158203125,-1.6076951026916504
-2.429962158203125,0.020751953125,-11.401894569396973,0.8995361328125,0.18145751953125,-0.2028600126504898,2017-03-27 14:50:28.391938,-173.24661254882812,0.5663000345230103,inertial,-0.06706000119447708,-0.770111083984375,0.37384033203125,1.3215571641921997
1.936492919921875,0.00103759765625,-12.815942764282227,0.91839599609375,0.20892333984375,-0.2031400054693222,2017-03-27 14:50:28.444291,-173.04635620117188,0.5636399984359741,inertial,-0.06565999984741211,0.695343017578125,0.31402587890625,0.06473235785961151
0.515899658203125,0.010986328125,-13.340005874633789,0.95538330078125,0.2265625,-0.2038400024175644,2017-03-27 14:50:28.495357,-173.1230926513672,0.5653200149536133,inertial,-0.06818000227212906,-0.635528564453125,0.58319091796875,0.6588376760482788
1.92901611328125,0.02215576171875,-11.902505874633789,0.9234619140625,0.1947021484375,-0.20509999990463257,2017-03-27 14:50:28.558126,-173.61050415039062,0.571340024471283,inertial,-0.06397999823093414,-1.084136962890625,1.42059326171875,1.3743805885314941
0.82244873046875,0.0277099609375,-11.814403533935547,0.91259765625,0.19097900390625,-0.2039799988269806,2017-03-27 14:50:28.596800,-173.29263305664062,0.5654600262641907,inertial,-0.06650000065565109,-0.112152099609375,0.814971923828125,1.7391849756240845
3.267364501953125,0.03558349609375,-12.620832443237305,0.9403076171875,0.210693359375,-0.2080399990081787,2017-03-27 14:50:28.648416,-172.83807373046875,0.5615400075912476,inertial,-0.07056000083684921,3.132781982421875,0.52337646484375,2.167175531387329
0.785064697265625,0.06884765625,-11.040974617004395,0.95281982421875,0.1864013671875,-0.20762000977993011,2017-03-27 14:50:28.698213,-173.1488037109375,0.5627999901771545,inertial,-0.06762000173330307,0.37384033203125,-1.487884521484375,4.132823944091797
1.92901611328125,0.01171875,-11.955741882324219,0.927490234375,0.1964111328125,-0.19991999864578247,2017-03-27 14:50:28.752671,-173.0773468017578,0.5661600232124329,inertial,-0.06874000281095505,-1.4654541015625,2.175750732421875,0.7238881587982178
2.699127197265625,0.034423828125,-11.959813117980957,0.9395751953125,0.19915771484375,-0.20622000098228455,2017-03-27 14:50:28.802646,-172.8628387451172,0.569100022315979,inertial,-0.071260005235672,-0.680389404296875,1.757049560546875,2.0982441902160645
1.712188720703125,0.0194091796875,-11.817473411560059,0.941162109375,0.19696044921875,-0.1976800113916397,2017-03-27 14:50:28.852280,-173.4662628173828,0.5684000253677368,inertial,-0.06509999930858612,-0.007476806640625,0.306549072265625,1.1814186573028564
1.1663818359375,0.04620361328125,-12.405431747436523,0.9420166015625,0.20745849609375,-0.20188000798225403,2017-03-27 14:50:28.902181,-173.30982971191406,0.568120002746582,inertial,-0.06664000451564789,1.256103515625,2.73651123046875,2.8079679012298584
2.609405517578125,0.00762939453125,-11.925071716308594,0.93865966796875,0.1982421875,-0.20762000977993011,2017-03-27 14:50:28.954341,-173.6287384033203,0.5667200088500977,inertial,-0.06328000128269196,2.100982666015625,-0.201873779296875,0.46568793058395386
-0.710296630859375,0.01324462890625,-13.300183296203613,0.93017578125,0.21990966796875,-0.20216000080108643,2017-03-27 14:50:29.008186,-173.40145874023438,0.5688199996948242,inertial,-0.0658000037074089,0.58319091796875,-0.216827392578125,0.8157706260681152
2.609405517578125,0.02532958984375,-11.575475692749023,0.93682861328125,0.19195556640625,-0.20258000493049622,2017-03-27 14:50:29.062152,-172.92161560058594,0.571619987487793,inertial,-0.070980004966259,0.059814453125,-0.485992431640625,1.548762559890747
2.97576904296875,0.0181884765625,-11.263136863708496,0.9327392578125,0.185791015625,-0.20496000349521637,2017-03-27 14:50:29.132614,-173.63352966308594,0.5696600079536438,inertial,-0.06356000155210495,0.059814453125,0.067291259765625,1.117129921913147
1.069183349609375,0.04156494140625,-12.253479957580566,0.94671630859375,0.205810546875,-0.203560009598732,2017-03-27 14:50:29.236442,-173.37039184570312,0.5685400366783142,inertial,-0.0660800039768219,-0.725250244140625,0.61309814453125,2.513918161392212
0.007476806640625,0.0318603515625,-11.968682289123535,0.93865966796875,0.1990966796875,-0.19978000223636627,2017-03-27 14:50:29.253234,-173.31309509277344,0.5684000253677368,inertial,-0.06664000451564789,-0.859832763671875,0.22430419921875,1.9440093040466309
1.256103515625,0.0169677734375,-11.973138809204102,0.93609619140625,0.19854736328125,-0.19697999954223633,2017-03-27 14:50:29.365494,-173.7639923095703,0.5663000345230103,inertial,-0.061879999935626984,-1.0467529296875,0.471038818359375,1.0384353399276733
1.62994384765625,0.0206298828125,-11.603127479553223,0.93701171875,0.19140625,-0.20453999936580658,2017-03-27 14:50:29.379639,-173.45187377929688,0.5677000284194946,inertial,-0.06425999850034714,0.059814453125,0.306549072265625,1.535801649093628
2.13836669921875,0.0069580078125,-11.92153263092041,0.934326171875,0.197265625,-0.20258000493049622,2017-03-27 14:50:29.393690,-173.0416259765625,0.5689600110054016,inertial,-0.06943999975919724,1.502838134765625,0.441131591796875,0.42667874693870544
1.099090576171875,0.03387451171875,-11.473822593688965,0.9384765625,0.19061279296875,-0.2090200036764145,2017-03-27 14:50:29.415557,-173.52137756347656,0.5658800005912781,inertial,-0.06425999850034714,-0.3289794921875,1.398162841796875,2.0672059059143066
0.5682373046875,0.0224609375,-11.50075626373291,0.93865966796875,0.1910400390625,-0.20664000511169434,2017-03-27 14:50:29.467244,-173.1404571533203,0.5656000375747681,inertial,-0.06803999841213226,-0.8074951171875,1.00189208984375,1.3707538843154907
6.841278076171875,0.038330078125,-11.963419914245605,0.98468017578125,0.20880126953125,-0.20258000493049622,2017-03-27 14:50:29.526430,-173.14503479003906,0.5706400275230408,inertial,-0.06859999895095825,1.128997802734375,0.471038818359375,2.229194402694702
-18.4527587890625,0.5374755859375,-7.455773830413818,1.2720947265625,0.18072509765625,-0.2087400108575821,2017-03-27 14:50:29.569704,-173.27699279785156,0.5653200149536133,inertial,-0.06664000451564789,-0.261688232421875,2.788848876953125,22.904653549194336
-23.574371337890625,-0.70159912109375,-7.354036331176758,0.162841796875,0.09295654296875,-0.20636001229286194,2017-03-27 14:50:29.626353,-172.7282257080078,0.571619987487793,inertial,-0.07293999940156937,-13.540496826171875,-2.87109375,-76.9329605102539
4.403839111328125,-0.0118408203125,-8.30764102935791,0.85345458984375,0.1246337890625,-0.20258000493049622,2017-03-27 14:50:29.673351,-173.08370971679688,0.567840039730072,inertial,-0.06887999922037125,7.230072021484375,-0.665435791015625,-0.7948700785636902
3.611297607421875,0.05657958984375,-9.887328147888184,0.94622802734375,0.16522216796875,-0.20090000331401825,2017-03-27 14:50:29.723840,-173.10325622558594,0.5625200271606445,inertial,-0.06803999841213226,0.471038818359375,1.55517578125,3.421919822692871
1.57012939453125,0.04168701171875,-11.895136833190918,0.94512939453125,0.19927978515625,-0.21000000834465027,2017-03-27 14:50:29.778616,-172.54856872558594,0.5651800036430359,inertial,-0.07392000406980515,-0.59814453125,1.562652587890625,2.525519609451294
0.43365478515625,0.04388427734375,-11.31007194519043,0.93829345703125,0.1878662109375,-0.20762000977993011,2017-03-27 14:50:29.825384,-172.79795837402344,0.5639200210571289,inertial,-0.071260005235672,-0.186920166015625,0.8673095703125,2.6777901649475098
1.712188720703125,0.11859130859375,-10.148595809936523,0.9576416015625,0.1727294921875,-0.20412001013755798,2017-03-27 14:50:29.875986,-172.23037719726562,0.5612600445747375,inertial,-0.0765800029039383,-0.186920166015625,0.725250244140625,7.059388160705566
0.515899658203125,0.0089111328125,-2.7603025436401367,0.88104248046875,0.04248046875,-0.20706000924110413,2017-03-27 14:50:29.927578,-172.36724853515625,0.5651800036430359,inertial,-0.07574000209569931,-1.114044189453125,0.934600830078125,0.5794872641563416
-0.179443359375,0.00372314453125,-12.592351913452148,0.9598388671875,0.21441650390625,-0.203000009059906,2017-03-27 14:50:29.978986,-172.35704040527344,0.5654600262641907,inertial,-0.07587999850511551,-1.398162841796875,-0.755157470703125,0.2222450077533722
-2.818756103515625,0.01959228515625,-20.83652687072754,0.9989013671875,0.3802490234375,-0.20509999990463257,2017-03-27 14:50:30.034849,-172.5558624267578,0.5657399892807007,inertial,-0.07392000406980515,4.852447509765625,-0.336456298828125,1.1236457824707031
-0.04486083984375,0.0418701171875,-12.545544624328613,0.93408203125,0.20806884765625,-0.20706000924110413,2017-03-27 14:50:30.081367,-172.39418029785156,0.5640600323677063,inertial,-0.07532000541687012,-2.310333251953125,0.52337646484375,2.566558599472046
1.8841552734375,0.0394287109375,-12.740126609802246,0.93914794921875,0.2125244140625,-0.20636001229286194,2017-03-27 14:50:30.130885,-172.74151611328125,0.5693800449371338,inertial,-0.07252000272274017,0.7476806640625,0.142059326171875,2.4040651321411133
1.577606201171875,0.04925537109375,-11.429548263549805,0.94244384765625,0.1907958984375,-0.2080399990081787,2017-03-27 14:50:30.181211,-172.77587890625,0.5677000284194946,inertial,-0.07196000218391418,-0.55328369140625,0.680389404296875,2.991753339767456
0.61309814453125,0.02532958984375,-10.821266174316406,0.9365234375,0.1790771484375,-0.20468001067638397,2017-03-27 14:50:30.233177,-172.28433227539062,0.5642000436782837,inertial,-0.0764399990439415,-0.112152099609375,0.396270751953125,1.549267053604126
0.904693603515625,0.03955078125,-11.964325904846191,0.94390869140625,0.2001953125,-0.2080399990081787,2017-03-27 14:50:30.283950,-172.5126190185547,0.5634999871253967,inertial,-0.07406000047922134,0.34393310546875,1.128997802734375,2.399350881576538
0.94207763671875,0.04168701171875,-12.437968254089355,0.94549560546875,0.208740234375,-0.20622000098228455,2017-03-27 14:50:30.335134,-172.67880249023438,0.5633600354194641,inertial,-0.07237999886274338,-0.28411865234375,0.800018310546875,2.5245425701141357
1.00189208984375,0.0250244140625,-11.86796760559082,0.93603515625,0.19677734375,-0.20538000762462616,2017-03-27 14:50:30.386467,-172.61936950683594,0.5674200057983398,inertial,-0.07349999994039536,-0.5084228515625,0.844879150390625,1.5314081907272339
1.084136962890625,0.0308837890625,-11.949345588684082,0.93621826171875,0.1982421875,-0.20747999846935272,2017-03-27 14:50:30.436923,-172.5673828125,0.5644800066947937,inertial,-0.07364000380039215,-0.31402587890625,0.635528564453125,1.8893771171569824
0.8673095703125,0.03009033203125,-12.058780670166016,0.9400634765625,0.200927734375,-0.20202000439167023,2017-03-27 14:50:30.488257,-172.37098693847656,0.5654600262641907,inertial,-0.07574000209569931,-0.35888671875,0.964508056640625,1.8333449363708496
0.76263427734375,0.03082275390625,-11.748337745666504,0.934814453125,0.19451904296875,-0.2077600061893463,2017-03-27 14:50:30.555623,-172.2639923095703,0.5647600293159485,inertial,-0.07671999931335449,-0.4486083984375,0.545806884765625,1.8884754180908203
1.248626708984375,0.02508544921875,-11.842439651489258,0.934326171875,0.19598388671875,-0.20594000816345215,2017-03-27 14:50:30.590750,-173.1915740966797,0.561680018901825,inertial,-0.06706000119447708,0.216827392578125,0.844879150390625,1.5379481315612793
1.054229736328125,0.0267333984375,-11.937755584716797,0.932373046875,0.19720458984375,-0.20747999846935272,2017-03-27 14:50:30.641114,-172.32403564453125,0.5619600415229797,inertial,-0.07574000209569931,0.366363525390625,0.680389404296875,1.6423591375350952
0.55328369140625,0.03369140625,-12.209389686584473,0.93701171875,0.202880859375,-0.2079000025987625,2017-03-27 14:50:30.688567,-172.48646545410156,0.5636399984359741,inertial,-0.07434000074863434,-0.19439697265625,1.03179931640625,2.059252977371216
0.396270751953125,0.03369140625,-11.788226127624512,0.94287109375,0.1968994140625,-0.20692001283168793,2017-03-27 14:50:30.743197,-172.27935791015625,0.5627999901771545,inertial,-0.0763000026345253,-0.299072265625,0.755157470703125,2.046466827392578
1.42059326171875,0.02581787109375,-11.907320976257324,0.929931640625,0.1961669921875,-0.19991999864578247,2017-03-27 14:50:30.794940,-172.5387725830078,0.5633600354194641,inertial,-0.07378000020980835,-0.261688232421875,0.844879150390625,1.590305209159851
1.024322509765625,0.01971435546875,-11.980055809020996,0.9334716796875,0.1981201171875,-0.2079000025987625,2017-03-27 14:50:30.847425,-172.17266845703125,0.5642000436782837,inertial,-0.07756000012159348,-0.127105712890625,0.657958984375,1.2098722457885742
0.43365478515625,0.03582763671875,-12.158814430236816,0.94464111328125,0.20367431640625,-0.2028600126504898,2017-03-27 14:50:30.898990,-172.38047790527344,0.570360004901886,inertial,-0.0763000026345253,-0.022430419921875,1.024322509765625,2.172030210494995
0.9271240234375,0.040283203125,-12.088600158691406,0.942138671875,0.20196533203125,-0.2032800018787384,2017-03-27 14:50:30.948242,-172.3730926513672,0.5698000192642212,inertial,-0.0763000026345253,0.13458251953125,0.949554443359375,2.448315382003784
0.979461669921875,0.0269775390625,-11.952621459960938,0.93780517578125,0.1986083984375,-0.20622000098228455,2017-03-27 14:50:30.998906,-172.6759796142578,0.5653200149536133,inertial,-0.07265999913215637,-0.231781005859375,0.770111083984375,1.6477547883987427
0.680389404296875,0.03216552734375,-12.1206636428833,0.93902587890625,0.2017822265625,-0.2032800018787384,2017-03-27 14:50:31.050147,-172.04681396484375,0.5651800036430359,inertial,-0.07896000146865845,-0.11962890625,0.94207763671875,1.9618507623672485
1.30096435546875,0.02484130859375,-11.949031829833984,0.9346923828125,0.1978759765625,-0.2088800072669983,2017-03-27 14:50:31.101169,-172.1322784423828,0.5653200149536133,inertial,-0.07812000066041946,-0.082244873046875,0.94207763671875,1.5223908424377441
1.054229736328125,0.03582763671875,-11.480509757995605,0.9444580078125,0.19195556640625,-0.20496000349521637,2017-03-27 14:50:31.152045,-172.62855529785156,0.5605599880218506,inertial,-0.07252000272274017,0.13458251953125,0.515899658203125,2.1724507808685303
0.112152099609375,0.04412841796875,-11.537712097167969,0.95574951171875,0.1953125,-0.20650000870227814,2017-03-27 14:50:31.203125,-171.95361328125,0.5634999871253967,inertial,-0.07965999841690063,-0.059814453125,0.31402587890625,2.6435563564300537
0.55328369140625,0.02459716796875,-12.441752433776855,0.94219970703125,0.20794677734375,-0.2031400054693222,2017-03-27 14:50:31.253774,-172.2196502685547,0.5656000375747681,inertial,-0.07727999985218048,0.142059326171875,1.3458251953125,1.4954302310943604
0.695343017578125,0.01812744140625,-12.523321151733398,0.93023681640625,0.2066650390625,-0.19740000367164612,2017-03-27 14:50:31.305369,-172.43228149414062,0.5658800005912781,inertial,-0.07518000155687332,-0.418701171875,1.143951416015625,1.1163763999938965
1.54022216796875,0.0308837890625,-11.533373832702637,0.93988037109375,0.19189453125,-0.20006000995635986,2017-03-27 14:50:31.356245,-172.8350067138672,0.5679799914360046,inertial,-0.0714000016450882,-0.3887939453125,0.5084228515625,1.8820207118988037
1.338348388671875,0.0318603515625,-11.982934951782227,0.94268798828125,0.2001953125,-0.19964000582695007,2017-03-27 14:50:31.407252,-172.41464233398438,0.5656000375747681,inertial,-0.07532000541687012,-0.0299072265625,0.695343017578125,1.9357084035873413
0.8673095703125,0.02618408203125,-11.676908493041992,0.93670654296875,0.19366455078125,-0.20160000026226044,2017-03-27 14:50:31.458456,-172.1990509033203,0.5702199935913086,inertial,-0.07812000066041946,-0.35888671875,0.37384033203125,1.601191759109497
0.844879150390625,0.03045654296875,-11.455653190612793,0.94012451171875,0.19061279296875,-0.19600000977516174,2017-03-27 14:50:31.509507,-172.24559020996094,0.5654600262641907,inertial,-0.07699999958276749,-0.216827392578125,0.755157470703125,1.855521559715271
3.51409912109375,-0.03131103515625,-11.076764106750488,0.88580322265625,0.17352294921875,-0.19432000815868378,2017-03-27 14:50:31.560195,-172.30506896972656,0.5709199905395508,inertial,-0.07714000344276428,-2.654266357421875,-1.74957275390625,-2.0244264602661133
1.80938720703125,-0.00360107421875,-14.29935073852539,0.936767578125,0.23876953125,-0.1937600076198578,2017-03-27 14:50:31.611601,-172.20169067382812,0.5724599957466125,inertial,-0.07840000092983246,-0.31402587890625,-0.471038818359375,-0.22025243937969208
0.8673095703125,-0.2366943359375,24.16864585876465,0.7708740234375,-0.36187744140625,-0.19978000223636627,2017-03-27 14:50:31.662351,-172.37037658691406,0.5706400275230408,inertial,-0.0764399990439415,2.4822998046875,7.947845458984375,-17.068931579589844
4.1571044921875,0.18634033203125,29.526596069335938,0.80548095703125,-0.46826171875,-0.1983800083398819,2017-03-27 14:50:31.713334,-172.71121215820312,0.5724599957466125,inertial,-0.07321999967098236,-4.568328857421875,-10.54229736328125,13.025687217712402
-1.114044189453125,0.5513916015625,-13.2378511428833,1.7247314453125,0.42596435546875,-0.20272000133991241,2017-03-27 14:50:31.764414,-172.58602905273438,0.5702199935913086,inertial,-0.07420000433921814,20.359344482421875,-1.6448974609375,17.728925704956055
-5.7421875,0.12725830078125,-11.913861274719238,0.84619140625,0.1805419921875,-0.20090000331401825,2017-03-27 14:50:31.815896,-172.45872497558594,0.5710600018501282,inertial,-0.07560000568628311,-7.07305908203125,8.50860595703125,8.552589416503906
-1.83929443359375,-0.022216796875,-17.244548797607422,0.88397216796875,0.27447509765625,-0.19096000492572784,2017-03-27 14:50:31.866325,-172.9613800048828,0.5714800357818604,inertial,-0.07056000083684921,0.186920166015625,-3.177642822265625,-1.439706802368164
-1.428070068359375,0.10107421875,-13.487969398498535,0.9803466796875,0.23638916015625,-0.20118001103401184,2017-03-27 14:50:31.917755,-172.31900024414062,0.5657399892807007,inertial,-0.0763000026345253,5.959014892578125,-0.097198486328125,5.886424541473389
-1.42059326171875,0.03521728515625,-13.545260429382324,0.94281005859375,0.227294921875,-0.1932000070810318,2017-03-27 14:50:31.968308,-172.56248474121094,0.5619600415229797,inertial,-0.07336000353097916,4.14215087890625,0.874786376953125,2.13920521736145
4.059906005859375,0.09344482421875,-12.40180492401123,0.949951171875,0.20989990234375,-0.19544000923633575,2017-03-27 14:50:32.019645,-172.3572235107422,0.5675600171089172,inertial,-0.0761599987745285,-4.7552490234375,2.295379638671875,5.617999076843262
6.003875732421875,-0.08526611328125,-14.296627044677734,0.881591796875,0.2257080078125,-0.19684000313282013,2017-03-27 14:50:32.070639,-171.81639099121094,0.5665799975395203,inertial,-0.0814800038933754,-8.14971923828125,3.342132568359375,-5.5243706703186035
7.28240966796875,0.04388427734375,-10.11620044708252,1.0753173828125,0.1920166015625,-0.20202000439167023,2017-03-27 14:50:32.121920,-172.02874755859375,0.5728800296783447,inertial,-0.08021999895572662,-12.80029296875,4.85992431640625,2.336974620819092
1.143951416015625,0.02081298828125,-12.563776969909668,0.93585205078125,0.2086181640625,-0.19991999864578247,2017-03-27 14:50:32.231439,-172.5601348876953,0.5671400427818298,inertial,-0.07406000047922134,-3.4991455078125,-0.059814453125,1.2740260362625122
1.854248046875,0.03167724609375,-13.207515716552734,0.93389892578125,0.21929931640625,-0.20244000852108002,2017-03-27 14:50:32.247208,-172.75057983398438,0.5712000131607056,inertial,-0.07265999913215637,-2.175750732421875,0.949554443359375,1.9426908493041992
0.934600830078125,0.02276611328125,-11.259049415588379,0.932373046875,0.1856689453125,-0.19614000618457794,2017-03-27 14:50:32.275609,-172.92198181152344,0.5671400427818298,inertial,-0.07042000442743301,-0.171966552734375,0.171966552734375,1.3987352848052979
1.547698974609375,0.0289306640625,-12.136207580566406,0.9324951171875,0.20062255859375,-0.19964000582695007,2017-03-27 14:50:32.327539,-172.82479858398438,0.5705000162124634,inertial,-0.07181999832391739,0.291595458984375,1.158905029296875,1.7770317792892456
8.052520751953125,-0.03887939453125,-12.29842758178711,0.85638427734375,0.1868896484375,-0.19726000726222992,2017-03-27 14:50:32.377718,-172.57998657226562,0.5719000101089478,inertial,-0.07448000460863113,3.013153076171875,1.09161376953125,-2.5994131565093994
-2.03369140625,0.0345458984375,-12.071516036987305,0.92974853515625,0.198974609375,-0.20202000439167023,2017-03-27 14:50:32.432157,-172.57400512695312,0.570360004901886,inertial,-0.07434000074863434,0.8673095703125,-1.1065673828125,2.127912998199463
-2.0635986328125,0.0482177734375,-12.695570945739746,0.9432373046875,0.2127685546875,-0.20118001103401184,2017-03-27 14:50:32.490864,-172.9574737548828,0.5745599865913391,inertial,-0.070980004966259,-1.143951416015625,0.291595458984375,2.9263815879821777
2.175750732421875,-0.15374755859375,-6.099047660827637,0.8597412109375,0.09332275390625,-0.203560009598732,2017-03-27 14:50:32.544593,-172.5962677001953,0.5699400305747986,inertial,-0.07406000047922134,-0.91217041015625,-1.128997802734375,-10.139030456542969
-1.39068603515625,-0.0618896484375,-17.24759864807129,0.92388916015625,0.2874755859375,-0.20076000690460205,2017-03-27 14:50:32.594821,-172.47618103027344,0.571340024471283,inertial,-0.07546000182628632,0.059814453125,2.624359130859375,-3.832413911819458
-0.94207763671875,0.0877685546875,-12.664424896240234,0.9796142578125,0.22100830078125,-0.19922000169754028,2017-03-27 14:50:32.634206,-172.5030517578125,0.5702199935913086,inertial,-0.07504000514745712,1.27105712890625,1.039276123046875,5.119746208190918
0.710296630859375,0.0758056640625,-7.7872538566589355,1.01116943359375,0.138671875,-0.19208000600337982,2017-03-27 14:50:32.688967,-172.52708435058594,0.5699400305747986,inertial,-0.07476000487804413,-1.33087158203125,0.478515625,4.287347793579102
2.4224853515625,-0.0137939453125,-13.173213005065918,0.943115234375,0.22076416015625,-0.19194000959396362,2017-03-27 14:50:32.737095,-172.5114288330078,0.5698000192642212,inertial,-0.07490000128746033,-1.09161376953125,1.562652587890625,-0.8379448056221008
0.478515625,0.0052490234375,-13.630040168762207,0.9217529296875,0.2235107421875,-0.19935999810695648,2017-03-27 14:50:32.787418,-172.8011932373047,0.5752600431442261,inertial,-0.07265999913215637,0.2392578125,0.396270751953125,0.3262735903263092
0.16448974609375,-0.035888671875,-12.781518936157227,0.9049072265625,0.2054443359375,-0.20047999918460846,2017-03-27 14:50:32.838471,-172.360595703125,0.5751200318336487,inertial,-0.07714000344276428,0.58319091796875,-0.052337646484375,-2.2711634635925293
1.293487548828125,0.0093994140625,-10.942118644714355,0.96063232421875,0.18572998046875,-0.20103999972343445,2017-03-27 14:50:32.889204,-173.01187133789062,0.5699400305747986,inertial,-0.06986000388860703,-0.8673095703125,3.730926513671875,0.5605990290641785
-0.6280517578125,0.0457763671875,-14.372823715209961,0.91229248046875,0.23406982421875,-0.19978000223636627,2017-03-27 14:50:32.940437,-172.73460388183594,0.5765200257301331,inertial,-0.07349999994039536,0.635528564453125,1.562652587890625,2.872537851333618
-0.04486083984375,0.04669189453125,-10.5648775100708,0.942626953125,0.176025390625,-0.19754000008106232,2017-03-27 14:50:32.991055,-172.57876586914062,0.5728800296783447,inertial,-0.07462000101804733,-0.605621337890625,-0.052337646484375,2.8357598781585693
-0.919647216796875,0.0531005859375,-11.546003341674805,0.98809814453125,0.2021484375,-0.1979600042104721,2017-03-27 14:50:33.042748,-172.55186462402344,0.5740000009536743,inertial,-0.07504000514745712,0.575714111328125,0.216827392578125,3.076127290725708
1.009368896484375,0,-17.527467727661133,0.880859375,0.2781982421875,-0.1979600042104721,2017-03-27 14:50:33.093315,-172.5769805908203,0.5727400183677673,inertial,-0.07462000101804733,2.07855224609375,2.400054931640625,0
-3.970184326171875,0.10308837890625,-17.52484893798828,1.0887451171875,0.3453369140625,-0.19894000887870789,2017-03-27 14:50:33.144573,-172.56739807128906,0.5741400122642517,inertial,-0.07490000128746033,-6.033782958984375,-1.816864013671875,5.408953666687012
1.084136962890625,0.04656982421875,-12.788198471069336,0.9615478515625,0.218505859375,-0.20146000385284424,2017-03-27 14:50:33.195394,-173.095947265625,0.5677000284194946,inertial,-0.06874000281095505,0.321502685546875,0.43365478515625,2.7727909088134766
1.443023681640625,-0.00311279296875,-7.840954303741455,0.93206787109375,0.12835693359375,-0.1926400065422058,2017-03-27 14:50:33.246937,-172.61549377441406,0.570360004901886,inertial,-0.07392000406980515,-1.30096435546875,0.485992431640625,-0.1913479119539261
0.934600830078125,0.00054931640625,-10.537270545959473,0.82293701171875,0.153076171875,-0.19754000008106232,2017-03-27 14:50:33.297626,-172.55104064941406,0.5664399862289429,inertial,-0.07406000047922134,0.179443359375,0.904693603515625,0.038245342671871185
0.112152099609375,-0.011474609375,-13.789568901062012,0.7327880859375,0.17987060546875,-0.1936200112104416,2017-03-27 14:50:33.349312,-172.51031494140625,0.5707800388336182,inertial,-0.07504000514745712,1.607513427734375,1.622467041015625,-0.8971119523048401
1.5850830078125,-0.02862548828125,-21.954933166503906,0.643310546875,0.25958251953125,-0.18998000025749207,2017-03-27 14:50:33.399615,-172.50018310546875,0.5763800144195557,inertial,-0.07587999850511551,0.471038818359375,-0.16448974609375,-2.547818422317505
1.495361328125,0.24041748046875,4.792941570281982,1.73406982421875,-0.14678955078125,-0.192780002951622,2017-03-27 14:50:33.449993,-172.92837524414062,0.5733000040054321,inertial,-0.0711200013756752,-0.665435791015625,1.5850830078125,7.893367767333984
1.353302001953125,-0.04046630859375,-13.409355163574219,0.9056396484375,0.21612548828125,-0.20034000277519226,2017-03-27 14:50:33.500907,-173.1787872314453,0.5723200440406799,inertial,-0.06846000254154205,-0.70281982421875,1.069183349609375,-2.5584211349487305
0.515899658203125,0.0455322265625,-10.360649108886719,0.95538330078125,0.17486572265625,-0.1985200047492981,2017-03-27 14:50:33.552234,-172.6631622314453,0.5730200409889221,inertial,-0.07378000020980835,-0.4486083984375,1.0467529296875,2.728571891784668
1.293487548828125,0.02410888671875,-12.252285957336426,0.92633056640625,0.20123291015625,-0.19754000008106232,2017-03-27 14:50:33.602915,-172.7282257080078,0.571619987487793,inertial,-0.07293999940156937,-0.142059326171875,0.515899658203125,1.4908561706542969
1.0467529296875,0.03662109375,-11.537345886230469,0.94293212890625,0.192626953125,-0.1983800083398819,2017-03-27 14:50:33.654461,-173.029296875,0.5759600400924683,inertial,-0.07042000442743301,-0.067291259765625,0.471038818359375,2.2241051197052
1.0467529296875,0.029052734375,-12.065773010253906,0.93267822265625,0.199462890625,-0.19432000815868378,2017-03-27 14:50:33.706718,-173.209716796875,0.5726000070571899,inertial,-0.06818000227212906,-0.22430419921875,0.530853271484375,1.7841747999191284
1.084136962890625,0.02783203125,-11.648871421813965,0.9354248046875,0.19293212890625,-0.19529999792575836,2017-03-27 14:50:33.757400,-172.7177276611328,0.5773600339889526,inertial,-0.07378000020980835,-0.351409912109375,0.64300537109375,1.7042392492294312
1.2261962890625,0.0311279296875,-12.055554389953613,0.9345703125,0.19970703125,-0.20146000385284424,2017-03-27 14:50:33.807256,-172.8268280029297,0.5740000009536743,inertial,-0.07224000245332718,0.04486083984375,0.800018310546875,1.9076573848724365
1.099090576171875,0.02996826171875,-12.071837425231934,0.93359375,0.19976806640625,-0.20090000331401825,2017-03-27 14:50:33.862770,-172.74378967285156,0.5717599987983704,inertial,-0.07280000299215317,-0.2392578125,0.605621337890625,1.838557243347168
0.919647216796875,0.0333251953125,-11.966894149780273,0.93414306640625,0.1981201171875,-0.2034199982881546,2017-03-27 14:50:33.923771,-172.78854370117188,0.5709199905395508,inertial,-0.07224000245332718,-0.246734619140625,0.58319091796875,2.0431385040283203
0.897216796875,0.02996826171875,-11.687614440917969,0.93511962890625,0.19354248046875,-0.2037000060081482,2017-03-27 14:50:33.963138,-172.6995849609375,0.5682600140571594,inertial,-0.07280000299215317,-0.276641845703125,0.7476806640625,1.8355592489242554
1.07666015625,0.029541015625,-11.746521949768066,0.93206787109375,0.19390869140625,-0.20453999936580658,2017-03-27 14:50:34.014043,-172.56320190429688,0.5727400183677673,inertial,-0.07476000487804413,-0.16448974609375,0.61309814453125,1.8153282403945923
0.88226318359375,0.03582763671875,-12.504237174987793,0.939453125,0.20849609375,-0.20636001229286194,2017-03-27 14:50:34.066385,-172.69424438476562,0.5692400336265564,inertial,-0.07280000299215317,-0.112152099609375,0.85235595703125,2.1840131282806396
1.308441162109375,0.03271484375,-12.107222557067871,0.93695068359375,0.20111083984375,-0.203560009598732,2017-03-27 14:50:34.117130,-172.84225463867188,0.5730200409889221,inertial,-0.07196000218391418,-0.127105712890625,0.800018310546875,1.9997438192367554
1.039276123046875,0.0330810546875,-12.150701522827148,0.9351806640625,0.20147705078125,-0.20453999936580658,2017-03-27 14:50:34.168831,-172.79171752929688,0.5689600110054016,inertial,-0.07196000218391418,0,0.456085205078125,2.0259344577789307
1.30096435546875,0.027099609375,-11.696220397949219,0.9342041015625,0.1934814453125,-0.20146000385284424,2017-03-27 14:50:34.220220,-172.48345947265625,0.5719000101089478,inertial,-0.07546000182628632,-0.07476806640625,0.657958984375,1.6615833044052124
1.016845703125,0.0350341796875,-11.673798561096191,0.93756103515625,0.19384765625,-0.19950000941753387,2017-03-27 14:50:34.270121,-172.8353271484375,0.5724599957466125,inertial,-0.07196000218391418,-0.082244873046875,0.485992431640625,2.139996290206909
0.88226318359375,0.03460693359375,-11.758443832397461,0.9388427734375,0.195556640625,-0.19978000223636627,2017-03-27 14:50:34.319565,-172.67417907714844,0.5749800205230713,inertial,-0.07392000406980515,-0.456085205078125,0.485992431640625,2.111039161682129
1.21124267578125,0.029296875,-12.349403381347656,0.93121337890625,0.2039794921875,-0.19516000151634216,2017-03-27 14:50:34.371952,-172.3017120361328,0.5727400183677673,inertial,-0.07742000371217728,-0.01495361328125,1.054229736328125,1.8019863367080688
1.71966552734375,0.05126953125,-9.107949256896973,0.92181396484375,0.14801025390625,-0.19558000564575195,2017-03-27 14:50:34.422697,-172.6002197265625,0.5745599865913391,inertial,-0.07462000101804733,1.278533935546875,0.64300537109375,3.1834020614624023
1.06170654296875,0.00469970703125,-10.837259292602539,0.91375732421875,0.1749267578125,-0.20132000744342804,2017-03-27 14:50:34.473562,-172.7450408935547,0.5696600079536438,inertial,-0.07252000272274017,2.97576904296875,2.4822998046875,0.2946854531764984
0.25421142578125,0.0465087890625,-12.429283142089844,0.942626953125,0.2080078125,-0.19894000887870789,2017-03-27 14:50:34.525420,-172.53184509277344,0.5692400336265564,inertial,-0.07462000101804733,2.669219970703125,2.415008544921875,2.8246572017669678
1.278533935546875,0.0135498046875,-14.841015815734863,0.92840576171875,0.24603271484375,-0.1932000070810318,2017-03-27 14:50:34.577233,-172.2329559326172,0.5727400183677673,inertial,-0.07812000066041946,-1.009368896484375,1.188812255859375,0.8361554145812988
0.897216796875,0.0137939453125,-11.967857360839844,0.92822265625,0.19677734375,-0.20090000331401825,2017-03-27 14:50:34.627221,-171.96234130859375,0.5710600018501282,inertial,-0.08064000308513641,-2.452392578125,-0.306549072265625,0.8513869643211365
1.517791748046875,0.0191650390625,-11.81314754486084,0.9266357421875,0.19384765625,-0.20202000439167023,2017-03-27 14:50:34.677983,-172.59828186035156,0.5776399970054626,inertial,-0.07504000514745712,0.34393310546875,0.657958984375,1.1848446130752563
1.308441162109375,0.03387451171875,-12.940667152404785,0.93731689453125,0.21551513671875,-0.192780002951622,2017-03-27 14:50:34.728958,-172.17491149902344,0.5674200057983398,inertial,-0.07798000425100327,1.128997802734375,1.338348388671875,2.069761276245117
0.919647216796875,0.0350341796875,-12.88737678527832,0.93621826171875,0.21435546875,-0.2037000060081482,2017-03-27 14:50:34.779606,-172.49940490722656,0.5699400305747986,inertial,-0.07504000514745712,-0.007476806640625,0.58319091796875,2.1430628299713135
0.897216796875,0.0303955078125,-12.51329231262207,0.934814453125,0.20758056640625,-0.19991999864578247,2017-03-27 14:50:34.830400,-172.6981201171875,0.5746999979019165,inertial,-0.07364000380039215,-0.904693603515625,0.052337646484375,1.8623170852661133
0.91217041015625,0.03271484375,-11.7891206741333,0.9305419921875,0.1943359375,-0.19600000977516174,2017-03-27 14:50:34.881798,-172.41464233398438,0.5656000375747681,inertial,-0.07532000541687012,-0.755157470703125,0.16448974609375,2.01350474357605
0.874786376953125,0.04071044921875,-11.830426216125488,0.93475341796875,0.19598388671875,-0.20118001103401184,2017-03-27 14:50:34.932311,-172.15805053710938,0.5733000040054321,inertial,-0.07896000146865845,-0.142059326171875,0.7177734375,2.493774175643921
0.97198486328125,0.02740478515625,-12.13380241394043,0.93017578125,0.2000732421875,-0.19432000815868378,2017-03-27 14:50:34.984406,-172.2603302001953,0.5758200287818909,inertial,-0.07826000452041626,0.538330078125,0.770111083984375,1.6875567436218262
1.18133544921875,0.03338623046875,-12.57818603515625,0.93218994140625,0.2081298828125,-0.193900004029274,2017-03-27 14:50:35.035199,-172.3509979248047,0.5702199935913086,inertial,-0.0765800029039383,0.426177978515625,0.83740234375,2.0511622428894043
0.874786376953125,0.03363037109375,-11.822628021240234,0.93304443359375,0.1954345703125,-0.20034000277519226,2017-03-27 14:50:35.086930,-172.3868408203125,0.5677000284194946,inertial,-0.07587999850511551,-0.10467529296875,0.829925537109375,2.064258098602295
0.680389404296875,0.03094482421875,-12.095728874206543,0.93365478515625,0.2001953125,-0.19964000582695007,2017-03-27 14:50:35.137997,-172.5433807373047,0.5712000131607056,inertial,-0.07476000487804413,-0.58319091796875,0.740203857421875,1.8983023166656494
0.8673095703125,0.039306640625,-12.230676651000977,0.93792724609375,0.2034912109375,-0.1979600042104721,2017-03-27 14:50:35.189399,-172.13528442382812,0.571619987487793,inertial,-0.07896000146865845,-0.59814453125,0.777587890625,2.3997464179992676
0.964508056640625,0.0223388671875,-12.218375205993652,0.93212890625,0.201904296875,-0.1934799998998642,2017-03-27 14:50:35.240250,-172.48587036132812,0.567840039730072,inertial,-0.07490000128746033,-0.07476806640625,0.67291259765625,1.3728550672531128
0.800018310546875,0.02496337890625,-12.319360733032227,0.9320068359375,0.20361328125,-0.20230001211166382,2017-03-27 14:50:35.292305,-172.33506774902344,0.5679799914360046,inertial,-0.0764399990439415,0.007476806640625,0.500946044921875,1.5342745780944824
1.27105712890625,0.03326416015625,-12.023433685302734,0.9342041015625,0.1990966796875,-0.203000009059906,2017-03-27 14:50:35.343717,-172.81826782226562,0.5744200348854065,inertial,-0.07237999886274338,-0.10467529296875,0.538330078125,2.039266586303711
1.27105712890625,0.037353515625,-12.04560375213623,0.9354248046875,0.19976806640625,-0.19488000869750977,2017-03-27 14:50:35.395513,-172.5775604248047,0.5738599896430969,inertial,-0.07476000487804413,0.456085205078125,0.8673095703125,2.2867281436920166
1.016845703125,0.02972412109375,-11.807332992553711,0.933837890625,0.1953125,-0.19908000528812408,2017-03-27 14:50:35.446431,-172.41270446777344,0.5717599987983704,inertial,-0.0761599987745285,0.441131591796875,1.009368896484375,1.8231128454208374
1.256103515625,0.03131103515625,-12.10579776763916,0.93426513671875,0.20050048828125,-0.19572000205516815,2017-03-27 14:50:35.498028,-172.2516632080078,0.5741400122642517,inertial,-0.07812000066041946,0.19439697265625,0.8673095703125,1.919496774673462
1.18133544921875,0.03515625,-12.222188949584961,0.93707275390625,0.203125,-0.1983800083398819,2017-03-27 14:50:35.549024,-172.4163818359375,0.5720400214195251,inertial,-0.0761599987745285,-0.0897216796875,0.8673095703125,2.1485636234283447
1.07666015625,0.034423828125,-12.071622848510742,0.9356689453125,0.19927978515625,-0.19964000582695007,2017-03-27 14:50:35.601898,-171.95260620117188,0.5714800357818604,inertial,-0.07476000487804413,-0.01495361328125,0.785064697265625,1.7041031122207642
0.85235595703125,0.03173828125,-12.019526481628418,0.9345703125,0.1990966796875,-0.19600000977516174,2017-03-27 14:50:35.652776,-172.20152282714844,0.5693800449371338,inertial,-0.07798000425100327,-0.171966552734375,0.650482177734375,1.9450339078903198
1.2261962890625,0.043212890625,-12.440702438354492,0.93524169921875,0.20654296875,-0.1981000006198883,2017-03-27 14:50:35.704304,-172.51898193359375,0.5735800266265869,inertial,-0.07532000541687012,-0.79254150390625,1.054229736328125,2.645473003387451
0.97198486328125,0.040283203125,-12.275310516357422,0.92987060546875,0.2025146484375,-0.19558000564575195,2017-03-27 14:50:35.754989,-172.23670959472656,0.5730200409889221,inertial,-0.07812000066041946,-0.336456298828125,0.6878662109375,2.480576515197754
0.61309814453125,0.03533935546875,-11.477376937866211,0.9263916015625,0.188232421875,-0.19572000205516815,2017-03-27 14:50:35.807071,-172.46441650390625,0.5693800449371338,inertial,-0.07532000541687012,-0.19439697265625,0.52337646484375,2.1846210956573486
0.485992431640625,0.04522705078125,-11.942337036132812,0.944580078125,0.20001220703125,-0.19614000618457794,2017-03-27 14:50:35.865806,-172.1396026611328,0.5749800205230713,inertial,-0.07938000559806824,-0.3289794921875,0.95703125,2.741262197494507
0.9271240234375,0.03076171875,-12.467909812927246,0.93914794921875,0.207763671875,-0.19628000259399414,2017-03-27 14:50:35.907605,-172.2790985107422,0.5741400122642517,inertial,-0.07784000039100647,-0.500946044921875,0.919647216796875,1.8760480880737305
0.76263427734375,0.03985595703125,-11.65648078918457,0.95745849609375,0.19769287109375,-0.19656001031398773,2017-03-27 14:50:35.958552,-172.38705444335938,0.5740000009536743,inertial,-0.07671999931335449,-0.35888671875,0.545806884765625,2.3836653232574463
1.054229736328125,0.02691650390625,-11.939499855041504,0.9339599609375,0.19757080078125,-0.1982400119304657,2017-03-27 14:50:36.009691,-172.34483337402344,0.5728800296783447,inertial,-0.07699999958276749,-0.19439697265625,0.73272705078125,1.6507937908172607
0.740203857421875,0.0355224609375,-12.15355110168457,0.9371337890625,0.20196533203125,-0.19726000726222992,2017-03-27 14:50:36.060361,-172.18849182128906,0.5714800357818604,inertial,-0.07840000092983246,-0.55328369140625,0.9869384765625,2.1707820892333984
1.069183349609375,0.03094482421875,-12.067582130432129,0.93304443359375,0.1995849609375,-0.20272000133991241,2017-03-27 14:50:36.111738,-172.16989135742188,0.5731599926948547,inertial,-0.07882000505924225,-0.5084228515625,0.55328369140625,1.8995431661605835
1.33087158203125,0.02215576171875,-12.105512619018555,0.93426513671875,0.200439453125,-0.20132000744342804,2017-03-27 14:50:36.161942,-172.1952667236328,0.5699400305747986,inertial,-0.07812000066041946,-0.22430419921875,0.500946044921875,1.3584941625595093
0.70281982421875,0.04034423828125,-12.913904190063477,0.943603515625,0.216552734375,-0.1988000124692917,2017-03-27 14:50:36.214071,-172.36061096191406,0.5636399984359741,inertial,-0.07560000568628311,-0.515899658203125,0.755157470703125,2.448218584060669
1.577606201171875,0.02435302734375,-12.078944206237793,0.930908203125,0.19927978515625,-0.19684000313282013,2017-03-27 14:50:36.264266,-172.1087188720703,0.5646200180053711,inertial,-0.07826000452041626,-0.299072265625,0.777587890625,1.498544692993164
0.897216796875,0.0380859375,-12.035635948181152,0.936767578125,0.19989013671875,-0.19152000546455383,2017-03-27 14:50:36.316541,-172.39793395996094,0.5664399862289429,inertial,-0.07560000568628311,-0.216827392578125,0.777587890625,2.328178644180298
0.874786376953125,-0.05853271484375,-15.649249076843262,0.904052734375,0.2537841796875,-0.19740000367164612,2017-03-27 14:50:36.366739,-172.50341796875,0.568120002746582,inertial,-0.07476000487804413,-1.09161376953125,0.8074951171875,-3.7044334411621094
4.366455078125,0.0384521484375,-10.570659637451172,0.93035888671875,0.17376708984375,-0.19544000923633575,2017-03-27 14:50:36.418082,-172.1028289794922,0.5692400336265564,inertial,-0.07896000146865845,1.607513427734375,0.04486083984375,2.366713285446167
4.029998779296875,0.001708984375,-12.33895206451416,0.91546630859375,0.20025634765625,-0.19950000941753387,2017-03-27 14:50:36.468350,-172.19583129882812,0.5689600110054016,inertial,-0.07798000425100327,1.413116455078125,1.562652587890625,0.10695912688970566
0.88226318359375,0.04559326171875,-11.604538917541504,0.9476318359375,0.19482421875,-0.20188000798225403,2017-03-27 14:50:36.527723,-172.17230224609375,0.5723200440406799,inertial,-0.07868000119924545,-1.62994384765625,0.381317138671875,2.7545387744903564
1.65985107421875,0.0294189453125,-12.858443260192871,0.9498291015625,0.2169189453125,-0.19740000367164612,2017-03-27 14:50:36.574059,-172.3604278564453,0.5726000070571899,inertial,-0.07784000039100647,0.25421142578125,0.889739990234375,1.7740483283996582
-0.142059326171875,0.02789306640625,-12.264906883239746,0.93310546875,0.20294189453125,-0.1986600011587143,2017-03-27 14:50:36.624499,-171.9170379638672,0.5717599987983704,inertial,-0.0812000036239624,0.5084228515625,1.07666015625,1.7122172117233276
1.293487548828125,0.031982421875,-11.09815502166748,0.9490966796875,0.186279296875,-0.2034199982881546,2017-03-27 14:50:36.673974,-172.32102966308594,0.5731599926948547,inertial,-0.07727999985218048,-0.299072265625,0.28411865234375,1.9300085306167603
0.6280517578125,0.0364990234375,-12.37188720703125,0.93505859375,0.20526123046875,-0.2028600126504898,2017-03-27 14:50:36.788904,-171.98155212402344,0.5734400153160095,inertial,-0.08077999949455261,-0.186920166015625,0.949554443359375,2.2353453636169434
0.904693603515625,0.0272216796875,-11.85586166381836,0.93463134765625,0.1962890625,-0.19600000977516174,2017-03-27 14:50:36.803729,-171.86398315429688,0.5689600110054016,inertial,-0.0813400000333786,0.530853271484375,0.61309814453125,1.6683011054992676
0.657958984375,0.0335693359375,-12.010638236999512,0.940673828125,0.20025634765625,-0.19446000456809998,2017-03-27 14:50:36.826620,-172.16815185546875,0.5689600110054016,inertial,-0.07826000452041626,0.859832763671875,0.545806884765625,2.0438172817230225
0.4486083984375,0.03558349609375,-12.265952110290527,0.93585205078125,0.20361328125,-0.19726000726222992,2017-03-27 14:50:36.878938,-172.21084594726562,0.5670000314712524,inertial,-0.07756000012159348,0.95703125,-0.605621337890625,2.177483558654785
1.009368896484375,0.029052734375,-12.191186904907227,0.9349365234375,0.20208740234375,-0.1983800083398819,2017-03-27 14:50:36.929089,-172.11090087890625,0.5688199996948242,inertial,-0.07882000505924225,-1.248626708984375,-0.64300537109375,1.7798680067062378
2.03369140625,0.023681640625,-10.24059772491455,0.93316650390625,0.16864013671875,-0.19656001031398773,2017-03-27 14:50:36.977601,-172.3291778564453,0.5654600262641907,inertial,-0.0761599987745285,-1.622467041015625,-0.500946044921875,1.4537243843078613
-0.157012939453125,0.014892578125,-11.30122184753418,0.92376708984375,0.18463134765625,-0.19950000941753387,2017-03-27 14:50:37.026820,-172.51475524902344,0.566860020160675,inertial,-0.07448000460863113,2.8411865234375,2.0635986328125,0.9236180782318115
1.861724853515625,0.04022216796875,-13.170838356018066,0.93548583984375,0.2191162109375,-0.19991999864578247,2017-03-27 14:50:37.080736,-172.2064666748047,0.5677000284194946,inertial,-0.07770000398159027,2.878570556640625,-0.007476806640625,2.4619741439819336
2.88604736328125,0.0283203125,-11.322178840637207,0.9293212890625,0.1861572265625,-0.19935999810695648,2017-03-27 14:50:37.131891,-172.42384338378906,0.5684000253677368,inertial,-0.07560000568628311,-4.104766845703125,-2.51220703125,1.745502233505249
2.564544677734375,0.01080322265625,-11.393658638000488,0.923095703125,0.18603515625,-0.1985200047492981,2017-03-27 14:50:37.185145,-172.34042358398438,0.5663000345230103,inertial,-0.0761599987745285,-3.282318115234375,0.142059326171875,0.6705163717269897
-1.173858642578125,0.0191650390625,-10.163448333740234,0.93914794921875,0.16839599609375,-0.19585999846458435,2017-03-27 14:50:37.258330,-172.59280395507812,0.5664399862289429,inertial,-0.07364000380039215,1.95892333984375,1.1663818359375,1.1690633296966553
1.2261962890625,0.0445556640625,-13.714621543884277,0.95709228515625,0.23382568359375,-0.19516000151634216,2017-03-27 14:50:37.286999,-172.19618225097656,0.5649000406265259,inertial,-0.07742000371217728,-1.5850830078125,-1.80938720703125,2.665374755859375
3.521575927734375,0.02008056640625,-12.18262767791748,0.9327392578125,0.201416015625,-0.2090200036764145,2017-03-27 14:50:37.336253,-172.227294921875,0.5692400336265564,inertial,-0.07770000398159027,-0.635528564453125,0.07476806640625,1.233307123184204
0.859832763671875,0.02392578125,-10.43507194519043,0.9326171875,0.17181396484375,-0.20118001103401184,2017-03-27 14:50:37.387696,-172.29721069335938,0.5682600140571594,inertial,-0.07686000317335129,0.91217041015625,1.6748046875,1.4695693254470825
-0.3887939453125,0.027587890625,-12.451258659362793,0.941650390625,0.2080078125,-0.20524001121520996,2017-03-27 14:50:37.439895,-172.4184112548828,0.5637800097465515,inertial,-0.07504000514745712,1.428070068359375,0.755157470703125,1.6781362295150757
1.951446533203125,0.02288818359375,-12.340081214904785,0.93658447265625,0.2049560546875,-0.20174001157283783,2017-03-27 14:50:37.490845,-172.67855834960938,0.5677000284194946,inertial,-0.07293999940156937,-2.086029052734375,-1.21124267578125,1.3999115228652954
1.18133544921875,0.026611328125,-10.567991256713867,0.93035888671875,0.17364501953125,-0.20258000493049622,2017-03-27 14:50:37.541343,-172.73593139648438,0.567840039730072,inertial,-0.07237999886274338,-0.70281982421875,-1.18133544921875,1.6384012699127197
-1.517791748046875,0.03240966796875,-11.292314529418945,0.954345703125,0.190673828125,-0.20103999972343445,2017-03-27 14:50:37.591669,-172.64987182617188,0.5654600262641907,inertial,-0.07293999940156937,2.04864501953125,2.34771728515625,1.945022463798523
-0.0299072265625,0.03863525390625,-11.522685050964355,0.94049072265625,0.19189453125,-0.19964000582695007,2017-03-27 14:50:37.640749,-172.15863037109375,0.5682600140571594,inertial,-0.07826000452041626,2.572021484375,0.650482177734375,2.352381467819214
3.6187744140625,0.02911376953125,-11.794923782348633,0.94451904296875,0.19732666015625,-0.20664000511169434,2017-03-27 14:50:37.693571,-172.0951385498047,0.5686799883842468,inertial,-0.07896000146865845,-1.54022216796875,-1.1663818359375,1.7655209302902222
0.889739990234375,0.0189208984375,-7.494073390960693,0.914306640625,0.12030029296875,-0.20076000690460205,2017-03-27 14:50:37.743557,-171.8917999267578,0.5679662823677063,inertial,-0.0816200003027916,-0.3887939453125,-0.37384033203125,1.1855244636535645
-0.665435791015625,0.02886962890625,-10.518423080444336,0.93609619140625,0.17388916015625,-0.20482000708580017,2017-03-27 14:50:37.797713,-172.06394958496094,0.5674200057983398,inertial,-0.07910000532865524,1.6448974609375,0.83740234375,1.766467809677124
2.49725341796875,0.04541015625,-10.951729774475098,0.9442138671875,0.18292236328125,-0.20132000744342804,2017-03-27 14:50:37.846615,-172.12799072265625,0.5660200119018555,inertial,-0.07826000452041626,-0.067291259765625,-0.25421142578125,2.7534091472625732
1.487884521484375,0.03912353515625,-7.9787678718566895,0.94195556640625,0.13214111328125,-0.20146000385284424,2017-03-27 14:50:37.897804,-172.3821563720703,0.5663000345230103,inertial,-0.07574000209569931,-2.4224853515625,1.79443359375,2.3783774375915527
-1.607513427734375,0.0218505859375,-10.20156192779541,0.9395751953125,0.16912841796875,-0.19908000528812408,2017-03-27 14:50:37.947751,-171.9434814453125,0.5647600293159485,inertial,-0.07993999868631363,3.521575927734375,-0.49346923828125,1.3322198390960693
-0.25421142578125,0.0374755859375,-11.152210235595703,0.94293212890625,0.18603515625,-0.20188000798225403,2017-03-27 14:50:38.000796,-172.14859008789062,0.5685400366783142,inertial,-0.07840000092983246,2.70660400390625,-1.00189208984375,2.275946855545044
2.863616943359375,0.02630615234375,-10.555522918701172,0.9354248046875,0.17437744140625,-0.20524001121520996,2017-03-27 14:50:38.050452,-171.93756103515625,0.5643399953842163,inertial,-0.07993999868631363,-2.01873779296875,-1.981353759765625,1.6108556985855103
-0.650482177734375,0.03131103515625,-8.459309577941895,0.94830322265625,0.14111328125,-0.20580001175403595,2017-03-27 14:50:38.102248,-172.49752807617188,0.5644800066947937,inertial,-0.07434000074863434,2.04864501953125,2.7215576171875,1.8911025524139404
-1.413116455078125,0.0380859375,-9.750757217407227,0.9368896484375,0.1611328125,-0.20678000152111053,2017-03-27 14:50:38.151427,-172.5479278564453,0.5640600323677063,inertial,-0.07378000020980835,2.07855224609375,-0.590667724609375,2.3278756141662598
3.15521240234375,0.0531005859375,-9.697162628173828,0.96649169921875,0.1654052734375,-0.20692001283168793,2017-03-27 14:50:38.203561,-172.13217163085938,0.5612600445747375,inertial,-0.07756000012159348,-2.43743896484375,-2.235565185546875,3.144759178161621
0.70281982421875,0.05029296875,-6.814766883850098,0.95068359375,0.11376953125,-0.20202000439167023,2017-03-27 14:50:38.253535,-172.0507049560547,0.5654600262641907,inertial,-0.07896000146865845,1.906585693359375,0.82244873046875,3.0282328128814697
0.276641845703125,0.03173828125,-11.025471687316895,0.92919921875,0.18115234375,-0.20202000439167023,2017-03-27 14:50:38.306176,-171.9659423828125,0.5613999962806702,inertial,-0.07924000173807144,2.489776611328125,2.0037841796875,1.9562681913375854
2.026214599609375,0.04400634765625,-11.450730323791504,0.93487548828125,0.1895751953125,-0.20468001067638397,2017-03-27 14:50:38.355981,-171.96214294433594,0.5601400136947632,inertial,-0.07910000532865524,-2.73651123046875,-2.19818115234375,2.695030689239502
3.416900634765625,0.03021240234375,-10.976308822631836,0.92596435546875,0.1796875,-0.203000009059906,2017-03-27 14:50:38.407704,-172.04867553710938,0.5593000054359436,inertial,-0.07812000066041946,-2.938385009765625,-0.55328369140625,1.8687859773635864
-0.575714111328125,0.00494384765625,-12.872386932373047,0.9337158203125,0.21337890625,-0.20258000493049622,2017-03-27 14:50:38.459889,-172.77017211914062,0.5650399923324585,inertial,-0.07168000191450119,0.97198486328125,3.192596435546875,0.30336740612983704
0.127105712890625,0.02923583984375,-10.365097045898438,0.94525146484375,0.1729736328125,-0.203560009598732,2017-03-27 14:50:38.512405,-172.2354736328125,0.5595800280570984,inertial,-0.0763000026345253,1.136474609375,0.2691650390625,1.7715460062026978
3.641204833984375,0.02630615234375,-10.245193481445312,0.9390869140625,0.1697998046875,-0.20174001157283783,2017-03-27 14:50:38.563383,-172.4248809814453,0.5653200149536133,inertial,-0.07518000155687332,-1.30096435546875,-0.10467529296875,1.6045771837234497
-0.441131591796875,0.0328369140625,-9.392991065979004,0.9583740234375,0.15863037109375,-0.20986001193523407,2017-03-27 14:50:38.615883,-172.07681274414062,0.5593000054359436,inertial,-0.07784000039100647,4.089813232421875,2.968292236328125,1.9623662233352661
-0.13458251953125,0.0323486328125,-11.500316619873047,0.94891357421875,0.19317626953125,-0.19978000223636627,2017-03-27 14:50:38.664078,-172.5989532470703,0.5647600293159485,inertial,-0.07336000353097916,1.54022216796875,0.6280517578125,1.9524672031402588
2.85614013671875,0.04541015625,-10.30912971496582,0.9407958984375,0.17132568359375,-0.20482000708580017,2017-03-27 14:50:38.718018,-172.19180297851562,0.5656000375747681,inertial,-0.07756000012159348,-1.024322509765625,-2.220611572265625,2.763396978378296
0.381317138671875,0.00701904296875,-9.812549591064453,0.927734375,0.16046142578125,-0.20258000493049622,2017-03-27 14:50:38.777469,-172.08230590820312,0.560699999332428,inertial,-0.07798000425100327,3.446807861328125,4.433746337890625,0.43347954750061035
-0.276641845703125,0.05560302734375,-9.148496627807617,0.95733642578125,0.18524169921875,-0.2091600000858307,2017-03-27 14:50:38.824835,-172.18028259277344,0.5646200180053711,inertial,-0.07209999859333038,1.33087158203125,0.538330078125,3.3240599632263184
4.05242919921875,0.03955078125,-10.192319869995117,0.94598388671875,0.17022705078125,-0.2085999995470047,2017-03-27 14:50:38.870384,-172.4716796875,0.5625200271606445,inertial,-0.07434000074863434,-0.725250244140625,-1.263580322265625,2.3940935134887695
-0.515899658203125,0.01641845703125,-5.9146857261657715,0.93408203125,0.14404296875,-0.19754000008106232,2017-03-27 14:50:38.929856,-172.61265563964844,0.561680018901825,inertial,-0.07448000460863113,4.643096923828125,4.687957763671875,1.9482853412628174
-1.727142333984375,0.03497314453125,-9.481077194213867,0.95068359375,0.15887451171875,-0.2091600000858307,2017-03-27 14:50:38.973295,-172.36521911621094,0.5629400014877319,inertial,-0.07546000182628632,0.695343017578125,1.016845703125,2.1068108081817627
2.811279296875,0.04205322265625,-9.183788299560547,0.935302734375,0.1513671875,-0.20594000816345215,2017-03-27 14:50:39.024268,-172.06724548339844,0.5636399984359741,inertial,-0.07854000478982925,-0.770111083984375,-1.143951416015625,2.5744075775146484
1.158905029296875,0.0157470703125,-8.902671813964844,0.93072509765625,0.14581298828125,-0.20580001175403595,2017-03-27 14:50:39.075401,-172.71481323242188,0.560699999332428,inertial,-0.07168000191450119,-1.65985107421875,1.233673095703125,0.9693029522895813
-0.76263427734375,0.0299072265625,-9.304818153381348,0.949462890625,0.1556396484375,-0.20160000026226044,2017-03-27 14:50:39.127633,-172.4502410888672,0.5619600415229797,inertial,-0.07448000460863113,1.54022216796875,1.1962890625,1.804168939590454
2.94586181640625,0.041748046875,-12.156773567199707,0.9403076171875,0.2027587890625,-0.20482000708580017,2017-03-27 14:50:39.174219,-172.48092651367188,0.5632200241088867,inertial,-0.07434000074863434,-1.383209228515625,-1.577606201171875,2.5421650409698486
0.829925537109375,0.02398681640625,-10.294294357299805,0.93524169921875,0.169921875,-0.20762000977993011,2017-03-27 14:50:39.225961,-172.11038208007812,0.560699999332428,inertial,-0.07770000398159027,-1.353302001953125,-0.949554443359375,1.4691839218139648
-0.276641845703125,0.03277587890625,-9.607919692993164,0.9361572265625,0.1585693359375,-0.2037000060081482,2017-03-27 14:50:39.275878,-172.20925903320312,0.5597200393676758,inertial,-0.0765800029039383,-0.2691650390625,3.581390380859375,2.0051681995391846
0.3887939453125,0.02606201171875,-10.210504531860352,0.9420166015625,0.16973876953125,-0.20580001175403595,2017-03-27 14:50:39.352054,-172.49526977539062,0.5611200332641602,inertial,-0.07392000406980515,0.88226318359375,-1.577606201171875,1.5847517251968384
2.25799560546875,0.03326416015625,-9.791089057922363,0.94268798828125,0.16278076171875,-0.21084000170230865,2017-03-27 14:50:39.378720,-172.5045166015625,0.5618200302124023,inertial,-0.07392000406980515,-0.2093505859375,0.5084228515625,2.0209290981292725
0.515899658203125,0.03875732421875,-9.20629596710205,0.94140625,0.1527099609375,-0.2038400024175644,2017-03-27 14:50:39.429996,-172.05165100097656,0.5625200271606445,inertial,-0.07854000478982925,-0.500946044921875,0.785064697265625,2.357513427734375
0.411224365234375,0.03314208984375,-9.564927101135254,0.941162109375,0.15869140625,-0.20972000062465668,2017-03-27 14:50:39.479866,-171.99745178222656,0.5636399984359741,inertial,-0.07924000173807144,-0.441131591796875,1.128997802734375,2.0167806148529053
-0.35888671875,0.039306640625,-11.51720905303955,0.96160888671875,0.19610595703125,-0.2039799988269806,2017-03-27 14:50:39.532378,-172.0776824951172,0.5623800158500671,inertial,-0.07826000452041626,1.517791748046875,3.312225341796875,2.3407142162323
1.158905029296875,0.03326416015625,-10.401178359985352,0.944091796875,0.17340087890625,-0.20258000493049622,2017-03-27 14:50:39.581924,-172.77667236328125,0.5622400045394897,inertial,-0.071260005235672,-1.891632080078125,0.13458251953125,2.0179264545440674
1.502838134765625,0.02484130859375,-9.850944519042969,0.94659423828125,0.1644287109375,-0.2037000060081482,2017-03-27 14:50:39.663740,-172.6661834716797,0.5623800158500671,inertial,-0.07237999886274338,-0.112152099609375,0.418701171875,1.503258228302002
0.10467529296875,0.0184326171875,-11.098313331604004,0.9410400390625,0.18463134765625,-0.20762000977993011,2017-03-27 14:50:39.693494,-172.0924530029297,0.560420036315918,inertial,-0.07784000039100647,2.220611572265625,1.00189208984375,1.1221373081207275
-0.6878662109375,0.03033447265625,-12.17605209350586,0.9454345703125,0.2041015625,-0.20482000708580017,2017-03-27 14:50:39.738565,-172.3837890625,0.5601400136947632,inertial,-0.07490000128746033,1.36077880859375,1.21124267578125,1.837717056274414
2.73651123046875,0.03741455078125,-8.979385375976562,0.93438720703125,0.14776611328125,-0.2028600126504898,2017-03-27 14:50:39.787420,-172.69244384765625,0.5622400045394897,inertial,-0.07551796734333038,-3.087921142578125,-1.338348388671875,2.293001413345337
2.370147705078125,0.03594970703125,-8.394854545593262,0.9356689453125,0.13818359375,-0.20566000044345856,2017-03-27 14:50:39.839133,-172.45912170410156,0.566860020160675,inertial,-0.07504000514745712,-1.0467529296875,2.011260986328125,2.2003016471862793
-0.55328369140625,0.01983642578125,-10.067445755004883,0.94140625,0.16717529296875,-0.20524001121520996,2017-03-27 14:50:39.888399,-172.8363800048828,0.5625200271606445,inertial,-0.07070000469684601,1.009368896484375,-0.95703125,1.2071040868759155
1.0467529296875,0.0367431640625,-11.374700546264648,0.9473876953125,0.19073486328125,-0.2077600061893463,2017-03-27 14:50:39.939971,-172.16175842285156,0.5583199858665466,inertial,-0.07686000317335129,-1.472930908203125,-0.67291259765625,2.22102689743042
1.74957275390625,0.027587890625,-10.618123054504395,0.94244384765625,0.1767578125,-0.20720000565052032,2017-03-27 14:50:39.989996,-172.8362274169922,0.5602800250053406,inertial,-0.07042000442743301,-2.235565185546875,-0.59814453125,1.6767241954803467
-0.201873779296875,0.01861572265625,-10.395973205566406,0.941650390625,0.17279052734375,-0.21153999865055084,2017-03-27 14:50:40.043204,-172.00796508789062,0.5613999962806702,inertial,-0.07882000505924225,2.37762451171875,3.8580322265625,1.13254714012146
-0.16448974609375,0.0330810546875,-10.806628227233887,0.95166015625,0.1817626953125,-0.21098001301288605,2017-03-27 14:50:40.092050,-172.30929565429688,0.5577600002288818,inertial,-0.07532000541687012,1.742095947265625,0.61309814453125,1.9908808469772339
3.132781982421875,0.0269775390625,-9.264275550842285,0.9290771484375,0.151611328125,-0.20468001067638397,2017-03-27 14:50:40.143961,-172.61447143554688,0.5605599880218506,inertial,-0.07265999913215637,-1.398162841796875,-1.79443359375,1.6632256507873535
2.041168212890625,0.01300048828125,-9.570643424987793,0.9342041015625,0.15753173828125,-0.21770000457763672,2017-03-27 14:50:40.195192,-172.93292236328125,0.5623800158500671,inertial,-0.06972000002861023,-0.889739990234375,2.0635986328125,0.7972829937934875
-1.951446533203125,0.02923583984375,-8.972381591796875,0.9423828125,0.14886474609375,-0.21140000224113464,2017-03-27 14:50:40.247924,-172.21633911132812,0.5612600445747375,inertial,-0.07671999931335449,1.233673095703125,1.55517578125,1.77693510055542
1.742095947265625,0.0482177734375,-11.147961616516113,0.95025634765625,0.1875,-0.2090200036764145,2017-03-27 14:50:40.296031,-172.6312255859375,0.5586000084877014,inertial,-0.07224000245332718,0.142059326171875,-0.007476806640625,2.9048030376434326
3.60382080078125,0.02734375,-10.730435371398926,0.93975830078125,0.17816162109375,-0.2143400013446808,2017-03-27 14:50:40.352514,-172.76084899902344,0.5620999932289124,inertial,-0.0714000016450882,-0.5084228515625,-0.94207763671875,1.6666408777236938
-0.01495361328125,0.0118408203125,-8.055652618408203,0.92236328125,0.13055419921875,-0.21532000601291656,2017-03-27 14:50:40.397805,-172.37625122070312,0.5595800280570984,inertial,-0.07490000128746033,1.60003662109375,1.0467529296875,0.735493004322052
-0.6878662109375,0.044677734375,-9.994440078735352,0.9423828125,0.166259765625,-0.2128000110387802,2017-03-27 14:50:40.451484,-172.61106872558594,0.5570600032806396,inertial,-0.07224000245332718,2.848663330078125,0.7476806640625,2.7143218517303467
3.850555419921875,0.0203857421875,-10.17501449584961,0.93939208984375,0.16864013671875,-0.21042001247406006,2017-03-27 14:50:40.499793,-172.49221801757812,0.5566400289535522,inertial,-0.07336000353097916,-0.650482177734375,-1.517791748046875,1.243180274963379
1.009368896484375,0.04302978515625,-9.941856384277344,0.9388427734375,0.16473388671875,-0.21042001247406006,2017-03-27 14:50:40.568880,-172.62472534179688,0.5559400320053101,inertial,-0.07196000218391418,-1.772003173828125,0.22430419921875,2.6241891384124756
-0.6878662109375,0.021728515625,-11.521217346191406,0.91180419921875,0.1859130859375,-0.2090200036764145,2017-03-27 14:50:40.603625,-172.77548217773438,0.5555199980735779,inertial,-0.07042000442743301,1.4056396484375,1.173858642578125,1.3651139736175537
-0.85235595703125,0.0716552734375,-11.266945838928223,0.96209716796875,0.19219970703125,-0.21574001014232635,2017-03-27 14:50:40.654110,-173.01893615722656,0.5556600093841553,inertial,-0.06803999841213226,0.95703125,-3.78326416015625,4.259422779083252
28.419342041015625,-0.09619140625,-39.72113037109375,-0.4569091796875,0.387939453125,-0.20706000924110413,2017-03-27 14:50:40.704416,-172.70523071289062,0.5523000359535217,inertial,-0.07070000469684601,7.140350341796875,15.62652587890625,-168.11134338378906
3.551483154296875,0.1619873046875,1.5256935358047485,1.47607421875,-0.03955078125,-0.20636001229286194,2017-03-27 14:50:40.756647,-172.92955017089844,0.5609800219535828,inertial,-0.06958000361919403,0.67291259765625,6.945953369140625,6.262691497802734
-6.452484130859375,0.1287841796875,-8.261361122131348,0.970947265625,0.1422119140625,-0.20453999936580658,2017-03-27 14:50:40.806736,-172.37814331054688,0.5597200393676758,inertial,-0.07490000128746033,5.99639892578125,-8.336639404296875,7.555477142333984
-0.43365478515625,-0.00567626953125,-12.465790748596191,0.90313720703125,0.2152099609375,-0.21112000942230225,2017-03-27 14:50:40.858709,-172.401611328125,0.5588800311088562,inertial,-0.07476000487804413,-4.88983154296875,2.7215576171875,-0.3601025342941284
1.652374267578125,0.01678466796875,-10.225188255310059,0.97265625,0.17547607421875,-0.20622000098228455,2017-03-27 14:50:40.908849,-172.00869750976562,0.558459997177124,inertial,-0.07840000092983246,-4.643096923828125,3.641204833984375,0.9886279702186584
3.177642822265625,0.0177001953125,-10.122615814208984,0.96185302734375,0.1717529296875,-0.20930001139640808,2017-03-27 14:50:40.960372,-172.11317443847656,0.5588800311088562,inertial,-0.07742000371217728,0.34393310546875,1.5252685546875,1.0542484521865845
2.37762451171875,0.0277099609375,-11.448751449584961,0.94049072265625,0.1905517578125,-0.20762000977993011,2017-03-27 14:50:41.010424,-172.7731170654297,0.5619600415229797,inertial,-0.071260005235672,1.084136962890625,-0.94207763671875,1.6876345872879028
1.443023681640625,0.00579833984375,-11.477739334106445,0.92401123046875,0.1876220703125,-0.2128000110387802,2017-03-27 14:50:41.062409,-172.20448303222656,0.5542600154876709,inertial,-0.07587999850511551,0.515899658203125,1.413116455078125,0.3595367968082428
0.919647216796875,0.04046630859375,-10.445457458496094,0.9549560546875,0.17620849609375,-0.2039799988269806,2017-03-27 14:50:41.112738,-172.07839965820312,0.560420036315918,inertial,-0.07798000425100327,1.009368896484375,2.474822998046875,2.426459789276123
1.936492919921875,0.02587890625,-10.960853576660156,0.95013427734375,0.18408203125,-0.2032800018787384,2017-03-27 14:50:41.164140,-172.2290496826172,0.5570600032806396,inertial,-0.0760200023651123,-0.321502685546875,0.381317138671875,1.560185432434082
1.95892333984375,0.0157470703125,-9.545392036437988,0.94757080078125,0.15936279296875,-0.20440000295639038,2017-03-27 14:50:41.214549,-172.47618103027344,0.5565000176429749,inertial,-0.07349999994039536,-0.650482177734375,0.34393310546875,0.9520741105079651
0.575714111328125,0.03521728515625,-10.558209419250488,0.93914794921875,0.1751708984375,-0.21000000834465027,2017-03-27 14:50:41.266596,-172.27865600585938,0.5555199980735779,inertial,-0.07532000541687012,-0.007476806640625,0.2691650390625,2.147538900375366
0.530853271484375,0.03485107421875,-10.305471420288086,0.943603515625,0.17169189453125,-0.2083200067281723,2017-03-27 14:50:41.317034,-172.19496154785156,0.5566400289535522,inertial,-0.0763000026345253,0.2392578125,1.502838134765625,2.1152021884918213
0.859832763671875,0.01361083984375,-5.670747756958008,0.89239501953125,0.088623046875,-0.2079000025987625,2017-03-27 14:50:41.368934,-172.26377868652344,0.5565000176429749,inertial,-0.07560000568628311,0.171966552734375,2.310333251953125,0.8738094568252563
0.560760498046875,0.02655029296875,-9.353109359741211,0.94049072265625,0.15496826171875,-0.20706000924110413,2017-03-27 14:50:41.418841,-172.27337646484375,0.557200014591217,inertial,-0.07560000568628311,0.515899658203125,2.093505859375,1.6170450448989868
0.351409912109375,0.03912353515625,-10.331756591796875,0.94097900390625,0.17169189453125,-0.20509999990463257,2017-03-27 14:50:41.471192,-172.363037109375,0.5586000084877014,inertial,-0.07490000128746033,0.64300537109375,0.620574951171875,2.380842924118042
0.13458251953125,0.02020263671875,-11.175252914428711,0.93682861328125,0.18511962890625,-0.2080399990081787,2017-03-27 14:50:41.521560,-171.7510223388672,0.557200014591217,inertial,-0.08077999949455261,4.59075927734375,0.321502685546875,1.2353875637054443
-0.25421142578125,0.02667236328125,-13.309600830078125,0.95166015625,0.2252197265625,-0.2031400054693222,2017-03-27 14:50:41.573143,-172.07791137695312,0.5563600063323975,inertial,-0.07742000371217728,2.624359130859375,3.1103515625,1.605419635772705
-0.261688232421875,0.0465087890625,-10.8910551071167,0.9454345703125,0.18212890625,-0.2080399990081787,2017-03-27 14:50:41.623382,-171.70787048339844,0.5542600154876709,inertial,-0.08077999949455261,-1.577606201171875,-1.966400146484375,2.8162825107574463
-1.203765869140625,0.04400634765625,-10.542091369628906,0.9376220703125,0.1746826171875,-0.20034000277519226,2017-03-27 14:50:41.678420,-171.33303833007812,0.5556600093841553,inertial,-0.08470000326633453,-3.342132568359375,-5.091705322265625,2.687147855758667
-4.68048095703125,0.06439208984375,-12.81812858581543,0.95953369140625,0.21881103515625,-0.21014000475406647,2017-03-27 14:50:41.726240,-171.36538696289062,0.5513200163841248,inertial,-0.08371999859809875,-5.38330078125,5.525360107421875,3.839231014251709
1.308441162109375,0.01434326171875,-10.35469913482666,0.9532470703125,0.1741943359375,-0.20664000511169434,2017-03-27 14:50:41.777306,-172.09597778320312,0.5566400289535522,inertial,-0.07727999985218048,-0.55328369140625,-2.370147705078125,0.8620496988296509
-0.605621337890625,0.04425048828125,-10.810981750488281,0.94537353515625,0.18072509765625,-0.20496000349521637,2017-03-27 14:50:41.831659,-171.7914276123047,0.5580400228500366,inertial,-0.08049999922513962,1.60003662109375,2.37762451171875,2.6799111366271973
1.712188720703125,0.029296875,-12.466878890991211,0.93292236328125,0.20635986328125,-0.20047999918460846,2017-03-27 14:50:41.879024,-171.8276824951172,0.5586000084877014,inertial,-0.08021999895572662,-1.3458251953125,-2.332763671875,1.7986875772476196
2.340240478515625,-0.00140380859375,-7.968851089477539,0.914306640625,0.12799072265625,-0.20216000080108643,2017-03-27 14:50:41.928992,-171.6365966796875,0.5580400228500366,inertial,-0.08204000443220139,-3.117828369140625,0.545806884765625,-0.08797075599431992
0.874786376953125,0.04656982421875,-8.63358211517334,0.9052734375,0.13763427734375,-0.2084600031375885,2017-03-27 14:50:41.980823,-172.02584838867188,0.5546799898147583,inertial,-0.07770000398159027,2.145843505859375,3.506622314453125,2.9448609352111816
22.23602294921875,-0.15716552734375,-77.5481185913086,0.2056884765625,1.17230224609375,-0.20972000062465668,2017-03-27 14:50:42.031237,-171.77783203125,0.5609800219535828,inertial,-0.0810599997639656,19.439697265625,32.172698974609375,-37.383262634277344
-0.127105712890625,-0.0594482421875,-18.36919593811035,0.8082275390625,0.26910400390625,-0.21182000637054443,2017-03-27 14:50:42.082845,-173.23406982421875,0.547540009021759,inertial,-0.06496000289916992,4.17205810546875,-2.415008544921875,-4.206749439239502
1.6748046875,0.02703857421875,-12.763787269592285,0.93023681640625,0.2108154296875,-0.21476000547409058,2017-03-27 14:50:42.137876,-172.5705108642578,0.537880003452301,inertial,-0.07014000415802002,-1.65985107421875,2.13836669921875,1.6649094820022583
-3.03558349609375,0.02252197265625,-12.807625770568848,0.94049072265625,0.2138671875,-0.21238000690937042,2017-03-27 14:50:42.186321,-172.13104248046875,0.537880003452301,inertial,-0.07434000074863434,-0.306549072265625,0.40374755859375,1.3718023300170898
0.70281982421875,0.03729248046875,-9.922834396362305,0.93988037109375,0.16455078125,-0.21630001068115234,2017-03-27 14:50:42.235301,-172.95191955566406,0.5390000343322754,inertial,-0.06664000451564789,1.973876953125,0.95703125,2.272184371948242
2.9010009765625,0.03033447265625,-11.18964958190918,0.9393310546875,0.1859130859375,-0.22008000314235687,2017-03-27 14:50:42.285551,-172.53250122070312,0.5415199995040894,inertial,-0.070980004966259,2.2430419921875,0.79254150390625,1.8496497869491577
2.788848876953125,0.01947021484375,-8.909707069396973,0.922119140625,0.14459228515625,-0.22204001247882843,2017-03-27 14:50:42.347542,-173.08743286132812,0.5346600413322449,inertial,-0.06481999903917313,-1.562652587890625,-0.889739990234375,1.2096000909805298
1.51031494140625,0.03253173828125,-10.837061882019043,0.951171875,0.18218994140625,-0.2188200056552887,2017-03-27 14:50:42.386726,-172.80624389648438,0.5313000082969666,inertial,-0.06706000119447708,-0.35888671875,0.979461669921875,1.9588520526885986
0.949554443359375,0.02569580078125,-11.15461254119873,0.9471435546875,0.18682861328125,-0.21938000619411469,2017-03-27 14:50:42.534146,-172.80323791503906,0.536620020866394,inertial,-0.06775999814271927,-1.383209228515625,1.27105712890625,1.5540410280227661
1.2261962890625,0.0322265625,-10.022404670715332,0.9364013671875,0.16558837890625,-0.224140003323555,2017-03-27 14:50:42.554176,-172.850830078125,0.5313000082969666,inertial,-0.06664000451564789,-0.814971923828125,0.994415283203125,1.9710752964019775
1.5850830078125,0.02752685546875,-11.323751449584961,0.94537353515625,0.18939208984375,-0.21098001301288605,2017-03-27 14:50:42.721248,-172.7268829345703,0.5331200361251831,inertial,-0.06803999841213226,-0.299072265625,1.218719482421875,1.6678351163864136
0.545806884765625,0.03582763671875,-11.09189224243164,0.93829345703125,0.18408203125,-0.21574001014232635,2017-03-27 14:50:42.740402,-173.2205352783203,0.5346600413322449,inertial,-0.06307172030210495,0,0.79254150390625,2.1867098808288574
0.61309814453125,0.023193359375,-10.929697036743164,0.93780517578125,0.18115234375,-0.21980001032352448,2017-03-27 14:50:42.763490,-173.2571258544922,0.5352200269699097,inertial,-0.06328000128269196,-0.052337646484375,0.201873779296875,1.416723608970642
1.188812255859375,0.03448486328125,-10.836067199707031,0.9381103515625,0.1796875,-0.22484000027179718,2017-03-27 14:50:42.784324,-172.63864135742188,0.5385800004005432,inertial,-0.06958000361919403,-0.127105712890625,1.33087158203125,2.1052403450012207
1.712188720703125,0.033447265625,-10.739568710327148,0.940673828125,0.17852783203125,-0.22162000834941864,2017-03-27 14:50:42.824351,-172.67800903320312,0.5360600352287292,inertial,-0.06887999922037125,-0.6280517578125,0.5084228515625,2.036391496658325
2.40753173828125,-0.02423095703125,-9.846942901611328,0.9019775390625,0.1566162109375,-0.22721999883651733,2017-03-27 14:50:42.839347,-172.96583557128906,0.5434800386428833,inertial,-0.06706000119447708,-3.0206298828125,2.8411865234375,-1.538838505744934
2.03369140625,0.0111083984375,-8.290858268737793,0.91595458984375,0.13348388671875,-0.22456000745296478,2017-03-27 14:50:42.855460,-172.48866271972656,0.5361999869346619,inertial,-0.07070000469684601,-2.086029052734375,0.0299072265625,0.6948304772377014
1.03179931640625,0.02130126953125,-10.591680526733398,0.94207763671875,0.17620849609375,-0.22582000494003296,2017-03-27 14:50:42.902002,-173.26585388183594,0.5359200239181519,inertial,-0.06328000128269196,-0.49346923828125,0.680389404296875,1.2952913045883179
1.06170654296875,0.0216064453125,-10.94762134552002,0.93658447265625,0.18121337890625,-0.224140003323555,2017-03-27 14:50:42.952405,-173.147216796875,0.5370399951934814,inertial,-0.06453999876976013,-0.171966552734375,1.39068603515625,1.3215450048446655
0.112152099609375,0.03375244140625,-10.377656936645508,0.93792724609375,0.171875,-0.22610001266002655,2017-03-27 14:50:43.004431,-172.60328674316406,0.5338200330734253,inertial,-0.06930000334978104,-0.13458251953125,1.016845703125,2.0609681606292725
0.3289794921875,0.0303955078125,-10.638242721557617,0.94085693359375,0.17681884765625,-0.22652000188827515,2017-03-27 14:50:43.053878,-173.0753936767578,0.5371800065040588,inertial,-0.06524000316858292,0,1.33087158203125,1.8503650426864624
0.52337646484375,0.02520751953125,-10.616147994995117,0.93975830078125,0.17620849609375,-0.2192400097846985,2017-03-27 14:50:43.107777,-173.34213256835938,0.5373200178146362,inertial,-0.06272000074386597,0.538330078125,0.710296630859375,1.5364996194839478
1.502838134765625,0.02520751953125,-9.812763214111328,0.93798828125,0.16229248046875,-0.22162000834941864,2017-03-27 14:50:43.156367,-173.17855834960938,0.5336800217628479,inertial,-0.06384000182151794,1.45050048828125,1.1663818359375,1.5393975973129272
1.435546875,0.0546875,-9.733043670654297,0.94244384765625,0.16192626953125,-0.22190000116825104,2017-03-27 14:50:43.208415,-172.27146911621094,0.5374600291252136,inertial,-0.07293999940156937,3.1103515625,1.36077880859375,3.3209969997406006
1.128997802734375,0.0443115234375,-10.841605186462402,0.93975830078125,0.18017578125,-0.22792001068592072,2017-03-27 14:50:43.258982,-172.99024963378906,0.5397000312805176,inertial,-0.0663600042462349,4.97955322265625,1.487884521484375,2.699613571166992
1.24114990234375,0.01605224609375,-9.88527774810791,0.9234619140625,0.16094970703125,-0.21462000906467438,2017-03-27 14:50:43.310783,-172.53591918945312,0.5353600382804871,inertial,-0.07014000415802002,2.415008544921875,2.28790283203125,0.9958540797233582
1.00189208984375,0.047119140625,-12.29769229888916,0.9471435546875,0.20672607421875,-0.22470000386238098,2017-03-27 14:50:43.366532,-172.79342651367188,0.5325599908828735,inertial,-0.06734000146389008,1.966400146484375,2.385101318359375,2.848041296005249
1.667327880859375,0.02264404296875,-11.770026206970215,0.9432373046875,0.19659423828125,-0.224140003323555,2017-03-27 14:50:43.413179,-172.53016662597656,0.5264000296592712,inertial,-0.06902000308036804,-1.06170654296875,1.682281494140625,1.3752201795578003
1.1663818359375,0.03106689453125,-11.06652545928955,0.9434814453125,0.18463134765625,-0.22246000170707703,2017-03-27 14:50:43.463629,-172.4916229248047,0.5300400257110596,inertial,-0.06986000388860703,-1.293487548828125,0.22430419921875,1.8859502077102661
0.844879150390625,0.03375244140625,-10.632051467895508,0.94000244140625,0.17657470703125,-0.22134000062942505,2017-03-27 14:50:43.515119,-172.5750274658203,0.5328400135040283,inertial,-0.06943999975919724,-2.489776611328125,-0.0897216796875,2.056422233581543
0.710296630859375,0.0267333984375,-10.52823543548584,0.939208984375,0.17462158203125,-0.22218000888824463,2017-03-27 14:50:43.567402,-172.8582763671875,0.5318599939346313,inertial,-0.06664000451564789,-3.33465576171875,1.65985107421875,1.6304118633270264
0.97198486328125,0.02398681640625,-10.461949348449707,0.94140625,0.17388916015625,-0.22204001247882843,2017-03-27 14:50:43.618941,-172.63385009765625,0.5360600352287292,inertial,-0.06930000334978104,-1.338348388671875,0.500946044921875,1.4595675468444824
0.88226318359375,0.03253173828125,-11.187548637390137,0.940673828125,0.1861572265625,-0.22162000834941864,2017-03-27 14:50:43.668292,-172.24151611328125,0.5353600382804871,inertial,-0.07293999940156937,-0.64300537109375,0.478515625,1.9806958436965942
1.016845703125,0.02752685546875,-10.835779190063477,0.94091796875,0.18017578125,-0.21588000655174255,2017-03-27 14:50:43.720658,-172.44879150390625,0.5322800278663635,inertial,-0.07056000083684921,0.01495361328125,0.919647216796875,1.6757283210754395
0.695343017578125,0.03228759765625,-10.832751274108887,0.94390869140625,0.18072509765625,-0.21503999829292297,2017-03-27 14:50:43.772124,-172.5512237548828,0.5332599878311157,inertial,-0.06972000002861023,0.35888671875,0.471038818359375,1.959111213684082
1.18133544921875,0.0323486328125,-11.095457077026367,0.9381103515625,0.18408203125,-0.21574001014232635,2017-03-27 14:50:43.822159,-172.78216552734375,0.5317200422286987,inertial,-0.06734000146389008,-0.0897216796875,0.67291259765625,1.9749339818954468
1.136474609375,0.02996826171875,-10.916778564453125,0.93621826171875,0.1806640625,-0.2234400063753128,2017-03-27 14:50:43.873803,-172.71121215820312,0.5363399982452393,inertial,-0.06859999895095825,-0.545806884765625,0.70281982421875,1.833406686782837
1.06170654296875,0.03363037109375,-10.770377159118652,0.93951416015625,0.1788330078125,-0.21952000260353088,2017-03-27 14:50:43.925572,-172.7234344482422,0.5405400395393372,inertial,-0.06902000308036804,-0.067291259765625,0.530853271484375,2.0500552654266357
1.0467529296875,0.0247802734375,-10.996208190917969,0.938232421875,0.182373046875,-0.21700000762939453,2017-03-27 14:50:43.976914,-173.23406982421875,0.5392799973487854,inertial,-0.06397999823093414,0.171966552734375,0.67291259765625,1.5129247903823853
1.15142822265625,0.0272216796875,-10.857915878295898,0.92431640625,0.1773681640625,-0.22134000062942505,2017-03-27 14:50:44.032248,-172.80154418945312,0.537600040435791,inertial,-0.06790000200271606,-0.336456298828125,0.680389404296875,1.6869078874588013
0.97198486328125,0.0313720703125,-10.754844665527344,0.939697265625,0.1785888671875,-0.21615999937057495,2017-03-27 14:50:44.091933,-172.9562225341797,0.5347999930381775,inertial,-0.0660800039768219,-0.755157470703125,0.46356201171875,1.9121263027191162
0.785064697265625,0.02838134765625,-10.727802276611328,0.93609619140625,0.17742919921875,-0.21615999937057495,2017-03-27 14:50:44.131422,-173.41062927246094,0.5332599878311157,inertial,-0.06160000339150429,-0.3887939453125,0.665435791015625,1.7366094589233398
0.710296630859375,0.03033447265625,-11.1171236038208,0.94189453125,0.1851806640625,-0.21602000296115875,2017-03-27 14:50:44.181132,-172.86390686035156,0.5345200300216675,inertial,-0.06692000478506088,-0.10467529296875,0.83740234375,1.8446191549301147
1.024322509765625,0.03179931640625,-10.988651275634766,0.93585205078125,0.18182373046875,-0.22078000009059906,2017-03-27 14:50:44.232538,-173.0438232421875,0.5381600260734558,inertial,-0.06565999984741211,-0.216827392578125,0.500946044921875,1.9461045265197754
1.03179931640625,0.0302734375,-11.243876457214355,0.9365234375,0.186279296875,-0.2179800122976303,2017-03-27 14:50:44.283209,-173.1696014404297,0.5364800095558167,inertial,-0.06425999850034714,-0.770111083984375,0.560760498046875,1.8514608144760132
1.069183349609375,0.02606201171875,-11.04457950592041,0.9405517578125,0.18365478515625,-0.2189600020647049,2017-03-27 14:50:44.335087,-173.10984802246094,0.5303199887275696,inertial,-0.06314000487327576,-1.03179931640625,0.381317138671875,1.5872186422348022
1.158905029296875,0.0299072265625,-10.961943626403809,0.94329833984375,0.18280029296875,-0.22246000170707703,2017-03-27 14:50:44.385884,-173.3620147705078,0.5377399921417236,inertial,-0.06258000433444977,-0.85235595703125,0.426177978515625,1.8159514665603638
1.435546875,0.02996826171875,-10.5404691696167,0.93963623046875,0.1749267578125,-0.22582000494003296,2017-03-27 14:50:44.437194,-173.08204650878906,0.5342400074005127,inertial,-0.06481999903917313,-0.25421142578125,0.336456298828125,1.826742172241211
1.084136962890625,0.03155517578125,-10.792030334472656,0.94342041015625,0.179931640625,-0.22204001247882843,2017-03-27 14:50:44.488193,-172.99534606933594,0.5332599878311157,inertial,-0.06552000343799591,0.216827392578125,0.28411865234375,1.915693759918213
0.94207763671875,0.02056884765625,-10.447154998779297,0.939208984375,0.1732177734375,-0.22666001319885254,2017-03-27 14:50:44.541290,-172.93045043945312,0.5339599847793579,inertial,-0.0662200003862381,-0.13458251953125,0.441131591796875,1.2545874118804932
1.099090576171875,0.02252197265625,-10.638258934020996,0.9384765625,0.17633056640625,-0.22288000583648682,2017-03-27 14:50:44.593850,-172.9083709716797,0.5322800278663635,inertial,-0.0662200003862381,-0.37384033203125,0.2691650390625,1.3747453689575195
1.136474609375,0.02911376953125,-10.693588256835938,0.94140625,0.1778564453125,-0.2184000015258789,2017-03-27 14:50:44.642986,-173.2450714111328,0.536620020866394,inertial,-0.06356000155210495,0.067291259765625,0.40374755859375,1.7713549137115479
0.94207763671875,0.0296630859375,-10.440342903137207,0.9385986328125,0.17303466796875,-0.21980001032352448,2017-03-27 14:50:44.693911,-173.11083984375,0.5318599939346313,inertial,-0.06425999850034714,-0.04486083984375,0.31402587890625,1.8101497888565063
0.97198486328125,0.0274658203125,-10.512946128845215,0.93927001953125,0.17437744140625,-0.21615999937057495,2017-03-27 14:50:44.745470,-172.8246307373047,0.5293400287628174,inertial,-0.06664000451564789,-0.43365478515625,0.4486083984375,1.6749467849731445
0.94207763671875,0.029052734375,-10.684429168701172,0.94482421875,0.1783447265625,-0.22232000529766083,2017-03-27 14:50:44.796032,-172.61776733398438,0.5370399951934814,inertial,-0.06958000361919403,-0.2392578125,0.40374755859375,1.7612532377243042
0.904693603515625,0.025634765625,-10.50846004486084,0.93841552734375,0.17413330078125,-0.22638000547885895,2017-03-27 14:50:44.848237,-172.6919708251953,0.5338200330734253,inertial,-0.06846000254154205,-0.127105712890625,0.04486083984375,1.5647639036178589
0.785064697265625,0.031494140625,-10.786760330200195,0.9390869140625,0.17901611328125,-0.22540000081062317,2017-03-27 14:50:44.898938,-172.8768310546875,0.5343800187110901,inertial,-0.06678000092506409,-0.1495361328125,0.059814453125,1.9208076000213623
1.158905029296875,0.0302734375,-10.631817817687988,0.9359130859375,0.17578125,-0.2234400063753128,2017-03-27 14:50:44.950345,-172.66195678710938,0.5327000021934509,inertial,-0.06859999895095825,-0.19439697265625,0.07476806640625,1.8526673316955566
1.143951416015625,0.028564453125,-10.478815078735352,0.93609619140625,0.1732177734375,-0.21938000619411469,2017-03-27 14:50:45.000798,-172.94754028320312,0.5307400226593018,inertial,-0.06565999984741211,-0.216827392578125,-0.2093505859375,1.747806429862976
0.9869384765625,0.03228759765625,-10.218368530273438,0.943115234375,0.17010498046875,-0.2190999984741211,2017-03-27 14:50:45.052223,-172.98098754882812,0.5310199856758118,inertial,-0.06537999957799911,-0.351409912109375,0.0299072265625,1.960758090019226
0.94207763671875,0.02899169921875,-10.400594711303711,0.94561767578125,0.17364501953125,-0.2182600051164627,2017-03-27 14:50:45.102376,-172.53111267089844,0.5307400226593018,inertial,-0.06958000361919403,-0.231781005859375,0.11962890625,1.7560815811157227
1.07666015625,0.027099609375,-10.317975997924805,0.94268798828125,0.17169189453125,-0.2182600051164627,2017-03-27 14:50:45.156172,-172.4688720703125,0.5294800400733948,inertial,-0.07000000029802322,-0.171966552734375,-0.157012939453125,1.6466379165649414
1.07666015625,0.030517578125,-10.417895317077637,0.94329833984375,0.17352294921875,-0.2190999984741211,2017-03-27 14:50:45.211353,-173.17564392089844,0.5322800278663635,inertial,-0.06370000541210175,-0.157012939453125,-0.10467529296875,1.852986216545105
1.143951416015625,0.02996826171875,-10.005963325500488,0.9390869140625,0.165771484375,-0.22162000834941864,2017-03-27 14:50:45.256440,-172.87684631347656,0.5299000144004822,inertial,-0.0662200003862381,0,-0.10467529296875,1.8278099298477173
0.979461669921875,0.02264404296875,-9.729663848876953,0.94195556640625,0.16156005859375,-0.21980001032352448,2017-03-27 14:50:45.327509,-173.05914306640625,0.5255600214004517,inertial,-0.06397999823093414,-0.306549072265625,0.01495361328125,1.3770906925201416
0.9869384765625,0.02508544921875,-10.215517044067383,0.943603515625,0.17010498046875,-0.22694000601768494,2017-03-27 14:50:45.359200,-173.05538940429688,0.5310199856758118,inertial,-0.06468000262975693,-0.0897216796875,0.022430419921875,1.5228344202041626
1.383209228515625,0.02716064453125,-10.042657852172852,0.9415283203125,0.16680908203125,-0.224140003323555,2017-03-27 14:50:45.409508,-172.59576416015625,0.5300400257110596,inertial,-0.06887999922037125,0.052337646484375,-0.097198486328125,1.6523760557174683
1.18133544921875,0.0272216796875,-9.847180366516113,0.94091796875,0.16339111328125,-0.2188200056552887,2017-03-27 14:50:45.460901,-172.6054229736328,0.5307400226593018,inertial,-0.06887999922037125,-0.19439697265625,-0.07476806640625,1.6571608781814575
1.136474609375,0.0289306640625,-9.744708061218262,0.94207763671875,0.161865234375,-0.22078000009059906,2017-03-27 14:50:45.512533,-173.153076171875,0.5328400135040283,inertial,-0.06397999823093414,-0.299072265625,-0.291595458984375,1.7589677572250366
0.88226318359375,0.02801513671875,-9.776301383972168,0.94183349609375,0.162353515625,-0.2186800092458725,2017-03-27 14:50:45.563397,-172.945556640625,0.5317200422286987,inertial,-0.0658000037074089,-0.246734619140625,-0.28411865234375,1.7037787437438965
1.128997802734375,0.02935791015625,-9.617049217224121,0.94293212890625,0.15985107421875,-0.21658000349998474,2017-03-27 14:50:45.613323,-172.52674865722656,0.5325599908828735,inertial,-0.06986000388860703,-0.306549072265625,-0.082244873046875,1.783310890197754
0.829925537109375,0.0277099609375,-9.411504745483398,0.9444580078125,0.1566162109375,-0.2190999984741211,2017-03-27 14:50:45.665868,-172.79920959472656,0.5340999960899353,inertial,-0.06748000532388687,-0.112152099609375,-0.142059326171875,1.6805495023727417
0.5084228515625,0.06964111328125,-12.373723030090332,0.9854736328125,0.21673583984375,-0.2238600105047226,2017-03-27 14:50:45.715463,-173.72613525390625,0.5310199856758118,inertial,-0.05838000029325485,0.6878662109375,-0.46356201171875,4.042238712310791
1.24114990234375,0.05181884765625,-10.105096817016602,0.9215087890625,0.16448974609375,-0.22456000745296478,2017-03-27 14:50:45.769022,-172.9596405029297,0.5248600244522095,inertial,-0.06481999903917313,-0.179443359375,0.157012939453125,3.2185018062591553
1.4654541015625,0.0322265625,-8.611337661743164,0.9300537109375,0.14093017578125,-0.22190000116825104,2017-03-27 14:50:45.818872,-172.95928955078125,0.5271000266075134,inertial,-0.06509999930858612,-0.70281982421875,-0.022430419921875,1.984517216682434
0.934600830078125,0.0374755859375,-9.859021186828613,0.95733642578125,0.16650390625,-0.22610001266002655,2017-03-27 14:50:45.869727,-173.34608459472656,0.5244399905204773,inertial,-0.061180002987384796,0.0299072265625,0.530853271484375,2.2417376041412354
0.740203857421875,0.0340576171875,-9.718459129333496,0.941650390625,0.161376953125,-0.22554001212120056,2017-03-27 14:50:45.918803,-172.83375549316406,0.5266799926757812,inertial,-0.0662200003862381,0.11962890625,0.657958984375,2.07137131690979
1.024322509765625,0.02667236328125,-9.880857467651367,0.9439697265625,0.16448974609375,-0.22610001266002655,2017-03-27 14:50:45.969730,-173.22999572753906,0.5259799957275391,inertial,-0.06244000047445297,-0.28411865234375,0.814971923828125,1.6184918880462646
1.1663818359375,0.0244140625,-9.377437591552734,0.94952392578125,0.1568603515625,-0.21980001032352448,2017-03-27 14:50:46.022526,-173.3893585205078,0.5303199887275696,inertial,-0.06146000325679779,-0.396270751953125,0.73272705078125,1.4728587865829468
1.084136962890625,0.02435302734375,-8.9755859375,0.94140625,0.14874267578125,-0.2234400063753128,2017-03-27 14:50:46.072096,-172.93475341796875,0.5286400318145752,inertial,-0.06552000343799591,-0.201873779296875,0.859832763671875,1.4818412065505981
0.680389404296875,0.03094482421875,-8.550960540771484,0.94976806640625,0.14288330078125,-0.2233000099658966,2017-03-27 14:50:46.122271,-173.21990966796875,0.5299000144004822,inertial,-0.06300000101327896,0.73272705078125,1.0467529296875,1.866119623184204
0.538330078125,0.0291748046875,-9.552221298217773,0.9364013671875,0.15765380859375,-0.2233000099658966,2017-03-27 14:50:46.175290,-173.6929931640625,0.5307400226593018,inertial,-0.05866000056266785,-0.0897216796875,0.859832763671875,1.7845473289489746
1.158905029296875,0.017822265625,-9.147737503051758,0.939453125,0.15130615234375,-0.21770000457763672,2017-03-27 14:50:46.225897,-172.7915496826172,0.5324200391769409,inertial,-0.06734000146389008,-0.216827392578125,1.2261962890625,1.0868217945098877
0.897216796875,0.0296630859375,-9.631457328796387,0.93896484375,0.159423828125,-0.2282000035047531,2017-03-27 14:50:46.277111,-172.88430786132812,0.5293400287628174,inertial,-0.0660800039768219,0.07476806640625,1.435546875,1.8094443082809448
0.635528564453125,0.0242919921875,-9.468153953552246,0.97760009765625,0.1630859375,-0.22204001247882843,2017-03-27 14:50:46.327506,-172.68963623046875,0.5271000266075134,inertial,-0.06762000173330307,-0.620574951171875,0.7177734375,1.423426866531372
2.3028564453125,-0.00592041015625,-7.862939834594727,0.834228515625,0.12506103515625,-0.22008000314235687,2017-03-27 14:50:46.379142,-172.06983947753906,0.5280799865722656,inertial,-0.06678000092506409,-1.906585693359375,-0.530853271484375,-0.4066137969493866
-0.725250244140625,0.03399658203125,-9.046905517578125,0.96002197265625,0.1529541015625,-0.2186800092458725,2017-03-27 14:50:46.429736,-172.81118774414062,0.5261200070381165,inertial,-0.0663600042462349,1.1065673828125,0.201873779296875,2.028127670288086
1.12152099609375,0.03082275390625,-9.747688293457031,0.96234130859375,0.1654052734375,-0.22106000781059265,2017-03-27 14:50:46.482106,-172.63992309570312,0.5289199948310852,inertial,-0.06831999868154526,-0.43365478515625,0.55328369140625,1.8344948291778564
