"","accel_x","accel_y","accel_z","gyro_x","gyro_y","gyro_z","mag_x","mag_y","mag_z","pitch","roll","yaw","timestamp","sensor","DateN","TimeN","Time","sequenceTime"
"1",-0.17681884765625,-0.14306640625,0.93695068359375,0.94207763671875,0.79254150390625,-0.25421142578125,0.166600003838539,0.514779984951019,-0.0814800038933754,10.5673456192017,-8.68164348602295,107.933311462402,270617204944,"inertial","270617","204944",2017-07-23 20:49:44,1
"2",-0.173095703125,-0.14459228515625,0.9364013671875,1.00936889648438,0.500946044921875,-0.022430419921875,0.163800001144409,0.511839985847473,-0.0856800004839897,10.3530225753784,-8.77787113189697,107.745811462402,270617204944,"inertial","270617","204944",2017-07-23 20:49:44,2
"3",-0.17547607421875,-0.1453857421875,0.93994140625,1.016845703125,0.7177734375,-0.142059326171875,0.170100003480911,0.509880006313324,-0.0880599990487099,10.4532051086426,-8.79256629943848,108.449104309082,270617204944,"inertial","270617","204944",2017-07-23 20:49:44,3
"4",-0.1715087890625,-0.14337158203125,0.9383544921875,0.994415283203125,0.83740234375,0.01495361328125,0.166880011558533,0.513800024986267,-0.0782600045204163,10.2416696548462,-8.68706226348877,107.99356842041,270617204944,"inertial","270617","204944",2017-07-23 20:49:44,4
"5",-0.17132568359375,-0.1456298828125,0.933837890625,0.897216796875,0.95703125,0.13458251953125,0.164640009403229,0.51254004240036,-0.0819000005722046,10.2746086120605,-8.86375141143799,107.808250427246,270617204944,"inertial","270617","204944",2017-07-23 20:49:44,5
"6",-0.16912841796875,-0.14813232421875,0.93487548828125,0.919647216796875,0.665435791015625,-0.31402587890625,0.164360001683235,0.512960016727448,-0.0800800025463104,10.1307525634766,-9.00374221801758,107.766227722168,270617204944,"inertial","270617","204944",2017-07-23 20:49:44,6
"7",-0.16717529296875,-0.143798828125,0.93878173828125,0.695343017578125,0.635528564453125,-0.082244873046875,0.160300001502037,0.512960016727448,-0.0802199989557266,9.98315238952637,-8.70864868164062,107.354026794434,270617204944,"inertial","270617","204944",2017-07-23 20:49:44,7
"8",-0.16552734375,-0.145263671875,0.9351806640625,0.91217041015625,0.85235595703125,0.2392578125,0.166740000247955,0.510160028934479,-0.0817600041627884,9.92084884643555,-8.82931900024414,108.099388122559,270617204944,"inertial","270617","204944",2017-07-23 20:49:44,8
"9",-0.16717529296875,-0.144287109375,0.93597412109375,0.8673095703125,0.500946044921875,0.10467529296875,0.163939997553825,0.508340001106262,-0.0820400044322014,10.0110483169556,-8.76356887817383,107.874549865723,270617204944,"inertial","270617","204944",2017-07-23 20:49:44,9
"10",-0.1689453125,-0.1414794921875,0.9376220703125,0.575714111328125,0.336456298828125,-0.0299072265625,0.165059998631477,0.51282000541687,-0.0767199993133545,10.1022691726685,-8.58073139190674,107.841667175293,270617204944,"inertial","270617","204944",2017-07-23 20:49:44,10
"11",-0.16778564453125,-0.14312744140625,0.9368896484375,0.620574951171875,0.321502685546875,-0.1495361328125,0.168280005455017,0.508340001106262,-0.0769999995827675,10.0392847061157,-8.68584823608398,108.316520690918,270617204944,"inertial","270617","204944",2017-07-23 20:49:44,11
"12",-0.1610107421875,-0.14556884765625,0.93768310546875,0.73272705078125,0.411224365234375,-0.0897216796875,0.165480002760887,0.510860025882721,-0.0816200003027916,9.63015556335449,-8.8243350982666,107.948402404785,270617204944,"inertial","270617","204944",2017-07-23 20:49:44,12
"13",-0.16680908203125,-0.14849853515625,0.9376220703125,0.5682373046875,0.2691650390625,-0.157012939453125,0.163660004734993,0.511139988899231,-0.0816200003027916,9.96606636047363,-8.99962997436523,107.754348754883,270617204944,"inertial","270617","204944",2017-07-23 20:49:44,13
"14",-0.172607421875,-0.145263671875,0.9339599609375,0.590667724609375,0.3887939453125,-0.1495361328125,0.162680000066757,0.509460031986237,-0.0809200033545494,10.3491325378418,-8.84067726135254,107.709243774414,270617204944,"inertial","270617","204944",2017-07-23 20:49:44,14
"15",-0.17333984375,-0.14404296875,0.9349365234375,1.00189208984375,0.3887939453125,-0.5084228515625,0.166320011019707,0.506099998950958,-0.0806400030851364,10.3837280273438,-8.75852870941162,108.192115783691,270617204944,"inertial","270617","204944",2017-07-23 20:49:44,15
"16",-0.17138671875,-0.14215087890625,0.93353271484375,0.79254150390625,0.441131591796875,-0.127105712890625,0.166040003299713,0.508620023727417,-0.0750400051474571,10.2870483398438,-8.65803337097168,108.079376220703,270617204944,"inertial","270617","204944",2017-07-23 20:49:44,16
"17",-0.16912841796875,-0.14862060546875,0.93572998046875,0.919647216796875,0.59814453125,-0.299072265625,0.168140009045601,0.510720014572144,-0.0722400024533272,10.1211137771606,-9.02481937408447,108.22265625,270617204944,"inertial","270617","204944",2017-07-23 20:49:44,17
"18",-0.170166015625,-0.14617919921875,0.93353271484375,0.829925537109375,0.7476806640625,-0.5682373046875,0.167160004377365,0.509739995002747,-0.0754600018262863,10.2088203430176,-8.89951324462891,108.155967712402,270617204944,"inertial","270617","204944",2017-07-23 20:49:44,18
"19",-0.1671142578125,-0.14703369140625,0.9361572265625,0.545806884765625,0.725250244140625,-0.11962890625,0.165340006351471,0.511420011520386,-0.0788200050592422,10.0012254714966,-8.92600727081299,107.915809631348,270617204944,"inertial","270617","204944",2017-07-23 20:49:44,19
"20",-0.1715087890625,-0.1429443359375,0.9351806640625,0.904693603515625,0.5084228515625,-0.13458251953125,0.162260010838509,0.512120008468628,-0.0781200006604195,10.275595664978,-8.69051647186279,107.580276489258,270617204944,"inertial","270617","204944",2017-07-23 20:49:44,20
"21",-0.163330078125,-0.14453125,0.93548583984375,0.515899658203125,0.530853271484375,-0.201873779296875,0.163379997014999,0.509739995002747,-0.0782600045204163,9.7898006439209,-8.78267669677734,107.771507263184,270617204945,"inertial","270617","204945",2017-07-23 20:49:45,21
"22",-0.1624755859375,-0.14483642578125,0.93634033203125,0.7177734375,0.426177978515625,-0.306549072265625,0.164640009403229,0.51282000541687,-0.0831600055098534,9.73058128356934,-8.79302501678467,107.799140930176,270617204945,"inertial","270617","204945",2017-07-23 20:49:45,22
"23",-0.16217041015625,-0.14312744140625,0.936767578125,0.725250244140625,0.291595458984375,-0.5682373046875,0.165760010480881,0.514079988002777,-0.0847000032663345,9.71101856231689,-8.68696212768555,107.871406555176,270617204945,"inertial","270617","204945",2017-07-23 20:49:45,23
"24",-0.17041015625,-0.14422607421875,0.9420166015625,0.620574951171875,0.186920166015625,-0.351409912109375,0.162540003657341,0.51254004240036,-0.0862400010228157,10.1382322311401,-8.70459270477295,107.595199584961,270617204945,"inertial","270617","204945",2017-07-23 20:49:45,24
"25",-0.17095947265625,-0.14447021484375,0.93585205078125,0.620574951171875,0.16448974609375,-0.381317138671875,0.164220005273819,0.511979997158051,-0.0817600041627884,10.2339029312134,-8.77564334869385,107.783889770508,270617204945,"inertial","270617","204945",2017-07-23 20:49:45,25
"26",-0.1741943359375,-0.14593505859375,0.93194580078125,0.7476806640625,0.396270751953125,-0.306549072265625,0.160160005092621,0.508899986743927,-0.0866600051522255,10.4626188278198,-8.8997745513916,107.4697265625,270617204945,"inertial","270617","204945",2017-07-23 20:49:45,26
"27",-0.17327880859375,-0.14251708984375,0.935791015625,0.485992431640625,0.13458251953125,-0.246734619140625,0.166040003299713,0.512960016727448,-0.0851199999451637,10.3735685348511,-8.65937042236328,107.936248779297,270617204945,"inertial","270617","204945",2017-07-23 20:49:45,27
"28",-0.17431640625,-0.1422119140625,0.9324951171875,0.6280517578125,0.31402587890625,-0.276641845703125,0.165760010480881,0.509600043296814,-0.0772799998521805,10.4700689315796,-8.67118644714355,108.018394470215,270617204945,"inertial","270617","204945",2017-07-23 20:49:45,28
"29",-0.173828125,-0.14031982421875,0.93634033203125,0.620574951171875,0.299072265625,-0.201873779296875,0.164080008864403,0.510020017623901,-0.0897400006651878,10.4034261703491,-8.52291202545166,107.833648681641,270617204945,"inertial","270617","204945",2017-07-23 20:49:45,29
"30",-0.1754150390625,-0.1396484375,0.93743896484375,0.471038818359375,0.35888671875,-0.179443359375,0.167020007967949,0.506240010261536,-0.0839999988675117,10.4856081008911,-8.47293090820312,108.258888244629,270617204945,"inertial","270617","204945",2017-07-23 20:49:45,30
"31",-0.17498779296875,-0.14324951171875,0.93402099609375,0.725250244140625,0.545806884765625,-0.0897216796875,0.165760010480881,0.508199989795685,-0.0819000005722046,10.4913892745972,-8.71943187713623,108.064811706543,270617204945,"inertial","270617","204945",2017-07-23 20:49:45,31
"32",-0.17242431640625,-0.14178466796875,0.93408203125,0.79254150390625,0.321502685546875,-0.07476806640625,0.162960007786751,0.505680024623871,-0.0826000049710274,10.3427562713623,-8.63106346130371,107.862007141113,270617204945,"inertial","270617","204945",2017-07-23 20:49:45,32
"33",-0.17303466796875,-0.14276123046875,0.941162109375,0.575714111328125,0.261688232421875,-0.0897216796875,0.164920002222061,0.505680024623871,-0.0849800035357475,10.3023328781128,-8.62522411346436,108.062965393066,270617204945,"inertial","270617","204945",2017-07-23 20:49:45,33
"34",-0.16925048828125,-0.1461181640625,0.9390869140625,0.785064697265625,0.441131591796875,-0.2691650390625,0.163379997014999,0.505120038986206,-0.0842799991369247,10.0977125167847,-8.84407711029053,107.923690795898,270617204945,"inertial","270617","204945",2017-07-23 20:49:45,34
"35",-0.17279052734375,-0.14111328125,0.9356689453125,0.620574951171875,0.336456298828125,-0.37384033203125,0.163939997553825,0.503440022468567,-0.0844200029969215,10.3485097885132,-8.57645034790039,108.037300109863,270617204945,"inertial","270617","204945",2017-07-23 20:49:45,35
"36",-0.17327880859375,-0.14263916015625,0.93695068359375,0.695343017578125,0.441131591796875,-0.16448974609375,0.168559998273849,0.50330001115799,-0.0785400047898293,10.3610944747925,-8.6561107635498,108.516189575195,270617204945,"inertial","270617","204945",2017-07-23 20:49:45,36
"37",-0.173828125,-0.1396484375,0.9371337890625,0.6280517578125,0.321502685546875,-0.28411865234375,0.166179999709129,0.508199989795685,-0.0807799994945526,10.3960628509521,-8.4756498336792,108.107604980469,270617204945,"inertial","270617","204945",2017-07-23 20:49:45,37
"38",-0.1761474609375,-0.1395263671875,0.935546875,0.560760498046875,0.40374755859375,0.0299072265625,0.169119998812675,0.511420011520386,-0.0824600011110306,10.5489711761475,-8.48250389099121,108.298385620117,270617204945,"inertial","270617","204945",2017-07-23 20:49:45,38
"39",-0.17657470703125,-0.13720703125,0.93756103515625,1.11404418945312,0.6878662109375,0.28411865234375,0.166600003838539,0.511979997158051,-0.0809200033545494,10.5559434890747,-8.32582855224609,108.025062561035,270617204945,"inertial","270617","204945",2017-07-23 20:49:45,39
"40",-0.17327880859375,-0.14202880859375,0.93621826171875,0.777587890625,0.635528564453125,0.01495361328125,0.162960007786751,0.510020017623901,-0.0821800008416176,10.3698272705078,-8.62627029418945,107.71955871582,270617204945,"inertial","270617","204945",2017-07-23 20:49:45,40
"41",-0.17431640625,-0.142822265625,0.935302734375,0.83740234375,0.76263427734375,-0.07476806640625,0.170520007610321,0.505959987640381,-0.0796599984169006,10.4390354156494,-8.68209171295166,108.624984741211,270617204945,"inertial","270617","204945",2017-07-23 20:49:45,41
"42",-0.17449951171875,-0.13861083984375,0.939453125,0.829925537109375,0.680389404296875,0.2691650390625,0.169400006532669,0.50848001241684,-0.0806400030851364,10.4123125076294,-8.39310455322266,108.425483703613,270617204945,"inertial","270617","204945",2017-07-23 20:49:45,42
"43",-0.17193603515625,-0.14300537109375,0.9375,0.83740234375,0.605621337890625,0.6280517578125,0.167020007967949,0.5067999958992,-0.0831600055098534,10.2761764526367,-8.67298889160156,108.240051269531,270617204946,"inertial","270617","204946",2017-07-23 20:49:46,43
"44",-0.175048828125,-0.14617919921875,0.93365478515625,1.09161376953125,0.785064697265625,0.800018310546875,0.162540003657341,0.505820035934448,-0.0861000046133995,10.4940252304077,-8.89836883544922,107.814270019531,270617204946,"inertial","270617","204946",2017-07-23 20:49:46,44
"45",-0.17626953125,-0.1431884765625,0.937744140625,0.9271240234375,1.31591796875,1.36825561523438,0.166460007429123,0.51282000541687,-0.0833000019192696,10.526535987854,-8.68169784545898,107.983291625977,270617204946,"inertial","270617","204946",2017-07-23 20:49:46,45
"46",-0.16314697265625,-0.152587890625,0.939453125,1.1065673828125,1.1065673828125,0.2691650390625,0.170239999890327,0.511560022830963,-0.0876400023698807,9.72684097290039,-9.22553443908691,108.406715393066,270617204946,"inertial","270617","204946",2017-07-23 20:49:46,46
"47",-0.1512451171875,-0.14599609375,0.93707275390625,0.919647216796875,0.575714111328125,0.5084228515625,0.172480002045631,0.50736004114151,-0.0826000049710274,9.06109714508057,-8.85549831390381,108.775764465332,270617204946,"inertial","270617","204946",2017-07-23 20:49:46,47
"48",-0.169677734375,-0.14129638671875,0.93646240234375,0.5084228515625,-0.0299072265625,0.1495361328125,0.17892000079155,0.509880006313324,-0.0812000036239624,10.1574716567993,-8.58024597167969,109.336280822754,270617204946,"inertial","270617","204946",2017-07-23 20:49:46,48
"49",-0.16204833984375,-0.1485595703125,0.9404296875,0.575714111328125,0.560760498046875,0.35888671875,0.173179998993874,0.508060038089752,-0.0796599984169006,9.65932178497314,-8.97682762145996,108.822456359863,270617204946,"inertial","270617","204946",2017-07-23 20:49:46,49
"50",-0.14263916015625,-0.131591796875,0.964111328125,0.2093505859375,0.336456298828125,0.478515625,0.170940011739731,0.5067999958992,-0.0784000009298325,8.33957386016846,-7.77228784561157,108.638885498047,270617204946,"inertial","270617","204946",2017-07-23 20:49:46,50
"51",-0.14178466796875,-0.14141845703125,0.94683837890625,0.83740234375,0.157012939453125,-0.755157470703125,0.173179998993874,0.507080018520355,-0.0820400044322014,8.42441272735596,-8.49482154846191,108.856269836426,270617204946,"inertial","270617","204946",2017-07-23 20:49:46,51
"52",-0.1671142578125,-0.16632080078125,0.92645263671875,1.03927612304688,-0.059814453125,-0.052337646484375,0.161559998989105,0.507499992847443,-0.0814800038933754,10.0675277709961,-10.1775732040405,107.65860748291,270617204946,"inertial","270617","204946",2017-07-23 20:49:46,52
"53",-0.1639404296875,-0.1341552734375,0.94915771484375,-0.171966552734375,-1.0467529296875,0.58319091796875,0.168140009045601,0.50764000415802,-0.0793800055980682,9.70495700836182,-8.04497528076172,108.32585144043,270617204946,"inertial","270617","204946",2017-07-23 20:49:46,53
"54",-0.17352294921875,-0.13677978515625,0.9398193359375,-0.142059326171875,-1.11404418945312,-0.58319091796875,0.168840005993843,0.50764000415802,-0.0753200054168701,10.3542728424072,-8.28059673309326,108.397018432617,270617204946,"inertial","270617","204946",2017-07-23 20:49:46,54
"55",-0.180419921875,-0.1370849609375,0.93194580078125,0.19439697265625,-1.24862670898438,-0.560760498046875,0.166880011558533,0.510300040245056,-0.0819000005722046,10.8427639007568,-8.36793899536133,108.108955383301,270617204946,"inertial","270617","204946",2017-07-23 20:49:46,55
"56",-0.18878173828125,-0.1370849609375,0.92919921875,0.216827392578125,-1.09909057617188,-0.291595458984375,0.169820010662079,0.511560022830963,-0.0739200040698051,11.3644924163818,-8.39232158660889,108.364356994629,270617204946,"inertial","270617","204946",2017-07-23 20:49:46,56
"57",-0.19232177734375,-0.13751220703125,0.93231201171875,0.10467529296875,-0.777587890625,-0.67291259765625,0.170800000429153,0.5067999958992,-0.0827400013804436,11.5343580245972,-8.3903980255127,108.624671936035,270617204946,"inertial","270617","204946",2017-07-23 20:49:46,57
"58",-0.194580078125,-0.1297607421875,0.93829345703125,0.25421142578125,-0.396270751953125,-0.800018310546875,0.169400006532669,0.508620023727417,-0.0813400000333786,11.6083002090454,-7.87374353408813,108.420753479004,270617204946,"inertial","270617","204946",2017-07-23 20:49:46,58
"59",-0.20465087890625,-0.12982177734375,0.93017578125,0.485992431640625,-0.43365478515625,-0.70281982421875,0.167860001325607,0.508060038089752,-0.0861000046133995,12.2926626205444,-7.94527292251587,108.283248901367,270617204946,"inertial","270617","204946",2017-07-23 20:49:46,59
"60",-0.2003173828125,-0.1343994140625,0.932373046875,0.777587890625,0.142059326171875,-0.2093505859375,0.164920002222061,0.506940007209778,-0.0904400050640106,12.0050621032715,-8.20255279541016,108.020973205566,270617204947,"inertial","270617","204947",2017-07-23 20:49:47,60
"61",-0.1944580078125,-0.13763427734375,0.93450927734375,1.256103515625,0.620574951171875,-0.0299072265625,0.163800001144409,0.505959987640381,-0.0914200022816658,11.6326761245728,-8.37827491760254,107.938896179199,270617204947,"inertial","270617","204947",2017-07-23 20:49:47,61
"62",-0.19525146484375,-0.133056640625,0.93798828125,1.12152099609375,0.934600830078125,0.04486083984375,0.162540003657341,0.508340001106262,-0.0855400040745735,11.6454076766968,-8.07372283935547,107.731498718262,270617204947,"inertial","270617","204947",2017-07-23 20:49:47,62
"63",-0.19219970703125,-0.13763427734375,0.92828369140625,1.21871948242188,1.02432250976562,-0.261688232421875,0.163379997014999,0.50764000415802,-0.0873600021004677,11.5746517181396,-8.43365859985352,107.840370178223,270617204947,"inertial","270617","204947",2017-07-23 20:49:47,63
"64",-0.1826171875,-0.145263671875,0.9329833984375,1.495361328125,1.20376586914062,-1.48788452148438,0.167439997196198,0.514640033245087,-0.0883399993181229,10.9461135864258,-8.84978485107422,108.022483825684,270617204947,"inertial","270617","204947",2017-07-23 20:49:47,64
"65",-0.19195556640625,-0.1380615234375,0.9324951171875,1.53274536132812,1.18133544921875,-1.62246704101562,0.167020007967949,0.511420011520386,-0.0936600044369698,11.5098752975464,-8.42180442810059,108.086051940918,270617204947,"inertial","270617","204947",2017-07-23 20:49:47,65
"66",-0.18377685546875,-0.13861083984375,0.93560791015625,1.48040771484375,1.60003662109375,-0.276641845703125,0.163379997014999,0.508620023727417,-0.0858200043439865,10.9958038330078,-8.42710494995117,107.808166503906,270617204947,"inertial","270617","204947",2017-07-23 20:49:47,66
"67",-0.1641845703125,-0.15228271484375,0.93310546875,1.45050048828125,1.79443359375,-0.127105712890625,0.162820011377335,0.511700034141541,-0.0819000005722046,9.85159873962402,-9.26895141601562,107.650772094727,270617204947,"inertial","270617","204947",2017-07-23 20:49:47,67
"68",-0.17919921875,-0.14251708984375,0.93560791015625,1.24114990234375,1.435546875,-0.52337646484375,0.163240000605583,0.511700034141541,-0.0844200029969215,10.7219219207764,-8.66103935241699,107.693466186523,270617204947,"inertial","270617","204947",2017-07-23 20:49:47,68
"69",-0.1685791015625,-0.14080810546875,0.93408203125,1.07666015625,1.60751342773438,0.478515625,0.162540003657341,0.514079988002777,-0.0876400023698807,10.1184520721436,-8.57250213623047,107.54573059082,270617204947,"inertial","270617","204947",2017-07-23 20:49:47,69
"70",-0.15728759765625,-0.1484375,0.935302734375,0.964508056640625,0.94207763671875,0.381317138671875,0.165480002760887,0.512960016727448,-0.0844200029969215,9.43011093139648,-9.0179328918457,107.879608154297,270617204947,"inertial","270617","204947",2017-07-23 20:49:47,70
"71",-0.1728515625,-0.14093017578125,0.9388427734375,0.919647216796875,0.874786376953125,0.007476806640625,0.162820011377335,0.509880006313324,-0.0837199985980988,10.3188896179199,-8.53695869445801,107.709846496582,270617204947,"inertial","270617","204947",2017-07-23 20:49:47,71
"72",-0.164794921875,-0.138916015625,0.94171142578125,0.67291259765625,0.889739990234375,1.77200317382812,0.170940011739731,0.508340001106262,-0.0820400044322014,9.82178974151611,-8.39143562316895,108.586303710938,270617204947,"inertial","270617","204947",2017-07-23 20:49:47,72
"73",-0.16290283203125,-0.1422119140625,0.935791015625,0.620574951171875,0.6878662109375,1.62246704101562,0.162820011377335,0.508620023727417,-0.0827400013804436,9.76518821716309,-8.6411075592041,107.750968933105,270617204947,"inertial","270617","204947",2017-07-23 20:49:47,73
"74",-0.17205810546875,-0.13983154296875,0.93536376953125,0.426177978515625,0.500946044921875,0.979461669921875,0.170660004019737,0.509600043296814,-0.0774200037121773,10.3108339309692,-8.50242614746094,108.515190124512,270617204947,"inertial","270617","204947",2017-07-23 20:49:47,74
"75",-0.16033935546875,-0.14947509765625,0.940673828125,0.785064697265625,0.171966552734375,-0.829925537109375,0.166600003838539,0.511139988899231,-0.0819000005722046,9.55555629730225,-9.02893447875977,108.052764892578,270617204947,"inertial","270617","204947",2017-07-23 20:49:47,75
"76",-0.17071533203125,-0.14263916015625,0.9383544921875,0.829925537109375,0.0299072265625,-1.77200317382812,0.166460007429123,0.5067999958992,-0.0826000049710274,10.1964445114136,-8.64335632324219,108.182922363281,270617204947,"inertial","270617","204947",2017-07-23 20:49:47,76
"77",-0.1871337890625,-0.13702392578125,0.9365234375,0.650482177734375,0.112152099609375,-1.18881225585938,0.169820010662079,0.511979997158051,-0.0823200047016144,11.1838541030884,-8.32395648956299,108.350303649902,270617204947,"inertial","270617","204947",2017-07-23 20:49:47,77
"78",-0.180419921875,-0.1395263671875,0.93792724609375,0.560760498046875,0.680389404296875,-0.28411865234375,0.167160004377365,0.515200018882751,-0.0784000009298325,10.7727041244507,-8.46128845214844,107.97599029541,270617204947,"inertial","270617","204947",2017-07-23 20:49:47,78
"79",-0.16644287109375,-0.14825439453125,0.93701171875,0.79254150390625,0.55328369140625,0.2392578125,0.176260009407997,0.509880006313324,-0.0872200056910515,9.95120906829834,-8.99083232879639,109.069717407227,270617204948,"inertial","270617","204948",2017-07-23 20:49:48,79
"80",-0.17791748046875,-0.14349365234375,0.93359375,0.650482177734375,0.605621337890625,-0.5682373046875,0.170239999890327,0.509880006313324,-0.0868000015616417,10.6672925949097,-8.73799896240234,108.463264465332,270617204948,"inertial","270617","204948",2017-07-23 20:49:48,80
"81",-0.1854248046875,-0.1380615234375,0.92889404296875,0.785064697265625,0.88226318359375,0.411224365234375,0.170100003480911,0.509180009365082,-0.0858200043439865,11.1693725585938,-8.45398235321045,108.472747802734,270617204948,"inertial","270617","204948",2017-07-23 20:49:48,81
"82",-0.16363525390625,-0.1495361328125,0.9420166015625,0.545806884765625,0.620574951171875,0.590667724609375,0.166320011019707,0.510020017623901,-0.0875000059604645,9.73485660552979,-9.0198974609375,108.061401367188,270617204948,"inertial","270617","204948",2017-07-23 20:49:48,82
"83",-0.177978515625,-0.13995361328125,0.9393310546875,0.97198486328125,0.46356201171875,-1.2261962890625,0.171499997377396,0.515060007572174,-0.0868000015616417,10.6143980026245,-8.47432136535645,108.416259765625,270617204948,"inertial","270617","204948",2017-07-23 20:49:48,83
"84",-0.18267822265625,-0.140869140625,0.93438720703125,0.904693603515625,0.665435791015625,-0.22430419921875,0.166460007429123,0.511700034141541,-0.0887600034475327,10.9415187835693,-8.57340335845947,108.020111083984,270617204948,"inertial","270617","204948",2017-07-23 20:49:48,84
"85",-0.1572265625,-0.15521240234375,0.9393310546875,0.83740234375,0.58319091796875,-0.545806884765625,0.168840005993843,0.510720014572144,-0.0877799987792969,9.37731266021729,-9.38261318206787,108.293479919434,270617204948,"inertial","270617","204948",2017-07-23 20:49:48,85
"86",-0.174072265625,-0.144287109375,0.931640625,0.874786376953125,0.381317138671875,-1.89910888671875,0.166179999709129,0.509039998054504,-0.0852600038051605,10.4614696502686,-8.80369472503662,108.079666137695,270617204948,"inertial","270617","204948",2017-07-23 20:49:48,86
"87",-0.1802978515625,-0.1397705078125,0.93536376953125,0.85235595703125,0.52337646484375,0.10467529296875,0.169679999351501,0.513800024986267,-0.0896000042557716,10.7933702468872,-8.49876880645752,108.27555847168,270617204948,"inertial","270617","204948",2017-07-23 20:49:48,87
"88",-0.17352294921875,-0.13983154296875,0.93798828125,0.55328369140625,0.471038818359375,0.55328369140625,0.162680000066757,0.511139988899231,-0.0882000029087067,10.3688716888428,-8.47898197174072,107.654655456543,270617204948,"inertial","270617","204948",2017-07-23 20:49:48,88
"89",-0.175537109375,-0.13739013671875,0.9361572265625,1.02432250976562,0.530853271484375,0.28411865234375,0.170100003480911,0.511139988899231,-0.0870800018310547,10.5100717544556,-8.34910869598389,108.406700134277,270617204948,"inertial","270617","204948",2017-07-23 20:49:48,89
"90",-0.16748046875,-0.14013671875,0.94189453125,0.800018310546875,0.64300537109375,0.725250244140625,0.170380011200905,0.510300040245056,-0.0900200009346008,9.97495937347412,-8.46248912811279,108.463241577148,270617204948,"inertial","270617","204948",2017-07-23 20:49:48,90
"91",-0.17352294921875,-0.1424560546875,0.9342041015625,0.770111083984375,0.37384033203125,-0.844879150390625,0.168840005993843,0.505680024623871,-0.0919800028204918,10.4048337936401,-8.67019748687744,108.463493347168,270617204948,"inertial","270617","204948",2017-07-23 20:49:48,91
"92",-0.17755126953125,-0.142822265625,0.9349365234375,0.829925537109375,0.381317138671875,-1.30844116210938,0.169679999351501,0.504420042037964,-0.0914200022816658,10.6323575973511,-8.68544101715088,108.592231750488,270617204948,"inertial","270617","204948",2017-07-23 20:49:48,92
"93",-0.168701171875,-0.14898681640625,0.9361572265625,0.710296630859375,0.1495361328125,-1.20376586914062,0.162540003657341,0.505400002002716,-0.0837199985980988,10.0910720825195,-9.04262924194336,107.828132629395,270617204948,"inertial","270617","204948",2017-07-23 20:49:48,93
"94",-0.1741943359375,-0.1436767578125,0.93548583984375,0.7476806640625,0.3887939453125,-1.18133544921875,0.163800001144409,0.50736004114151,-0.0791000053286552,10.4285402297974,-8.73155498504639,107.892555236816,270617204948,"inertial","270617","204948",2017-07-23 20:49:48,94
"95",-0.17822265625,-0.14117431640625,0.9364013671875,0.620574951171875,0.306549072265625,-0.785064697265625,0.169820010662079,0.507780015468597,-0.0835800021886826,10.6584167480469,-8.57349395751953,108.491798400879,270617204948,"inertial","270617","204948",2017-07-23 20:49:48,95
"96",-0.181396484375,-0.14300537109375,0.93475341796875,0.590667724609375,0.366363525390625,-0.059814453125,0.163520008325577,0.507499992847443,-0.0809200033545494,10.858922958374,-8.69808292388916,107.859298706055,270617204948,"inertial","270617","204948",2017-07-23 20:49:48,96
"97",-0.1754150390625,-0.14337158203125,0.93389892578125,0.770111083984375,0.306549072265625,0.411224365234375,0.169400006532669,0.507499992847443,-0.0827400013804436,10.5175457000732,-8.72787094116211,108.458656311035,270617204948,"inertial","270617","204948",2017-07-23 20:49:48,97
"98",-0.1715087890625,-0.1436767578125,0.933837890625,0.5682373046875,0.10467529296875,-0.097198486328125,0.167720004916191,0.506380021572113,-0.0819000005722046,10.2792959213257,-8.74672508239746,107.906433105469,270617204948,"inertial","270617","204948",2017-07-23 20:49:48,98
"99",-0.17767333984375,-0.14215087890625,0.93463134765625,0.530853271484375,0.261688232421875,-0.441131591796875,0.171640008687973,0.508620023727417,-0.0804999992251396,10.6439304351807,-8.64801025390625,108.647590637207,270617204949,"inertial","270617","204949",2017-07-23 20:49:49,99
"100",-0.17974853515625,-0.141845703125,0.93511962890625,0.6878662109375,0.37384033203125,-0.657958984375,0.167720004916191,0.504840016365051,-0.0879200026392937,10.7605037689209,-8.62528610229492,108.377731323242,270617204949,"inertial","270617","204949",2017-07-23 20:49:49,100
"101",-0.175048828125,-0.1317138671875,0.94219970703125,0.844879150390625,0.22430419921875,-0.216827392578125,0.164640009403229,0.508199989795685,-0.0849800035357475,10.4257097244263,-7.9580340385437,107.950614929199,270617204949,"inertial","270617","204949",2017-07-23 20:49:49,101
"102",-0.1776123046875,-0.1004638671875,0.94281005859375,-0.76263427734375,-1.9439697265625,-0.605621337890625,0.164920002222061,0.509320020675659,-0.0804999992251396,10.6100015640259,-6.08236694335938,107.942176818848,270617204949,"inertial","270617","204949",2017-07-23 20:49:49,102
"103",-0.190185546875,-0.10577392578125,0.97357177734375,0.73272705078125,-0.43365478515625,0.2691650390625,0.160439997911453,0.509460031986237,-0.0858200043439865,10.9903450012207,-6.20059251785278,107.480346679688,270617204949,"inertial","270617","204949",2017-07-23 20:49:49,103
"104",-0.1729736328125,-0.101318359375,0.96807861328125,1.016845703125,-0.321502685546875,0.67291259765625,0.167160004377365,0.503859996795654,-0.0817600041627884,10.0766477584839,-5.97478055953979,108.353721618652,270617204949,"inertial","270617","204949",2017-07-23 20:49:49,104
"105",-0.18572998046875,-0.14593505859375,0.9239501953125,1.1962890625,-0.695343017578125,0.76263427734375,0.169400006532669,0.504980027675629,-0.0838600024580956,11.2303495407104,-8.97554206848145,108.544479370117,270617204949,"inertial","270617","204949",2017-07-23 20:49:49,105
"106",-0.15362548828125,-0.1524658203125,0.9344482421875,1.016845703125,-0.500946044921875,0.441131591796875,0.170100003480911,0.509600043296814,-0.0820400044322014,9.21630859375,-9.2667989730835,108.458557128906,270617204949,"inertial","270617","204949",2017-07-23 20:49:49,106
"107",-0.15966796875,-0.145263671875,0.93817138671875,0.426177978515625,-0.127105712890625,-0.186920166015625,0.169400006532669,0.509320020675659,-0.0837199985980988,9.54702568054199,-8.80161476135254,108.39714050293,270617204949,"inertial","270617","204949",2017-07-23 20:49:49,107
"108",-0.17926025390625,-0.14044189453125,0.932861328125,0.82244873046875,-0.13458251953125,-1.12899780273438,0.169400006532669,0.50652003288269,-0.0802199989557266,10.7590942382812,-8.56155967712402,108.491943359375,270617204949,"inertial","270617","204949",2017-07-23 20:49:49,108
"109",-0.1820068359375,-0.13885498046875,0.93316650390625,0.657958984375,-0.2392578125,-1.68975830078125,0.163800001144409,0.509460031986237,-0.0854000002145767,10.9192523956299,-8.46350002288818,107.823471069336,270617204949,"inertial","270617","204949",2017-07-23 20:49:49,109
"110",-0.1920166015625,-0.1387939453125,0.9288330078125,0.73272705078125,0.171966552734375,-0.59814453125,0.170520007610321,0.511560022830963,-0.0851199999451637,11.5553665161133,-8.49872779846191,108.434951782227,270617204949,"inertial","270617","204949",2017-07-23 20:49:49,110
"111",-0.19635009765625,-0.1298828125,0.93621826171875,0.49346923828125,0.40374755859375,0.276641845703125,0.167999997735023,0.507080018520355,-0.0847000032663345,11.7355537414551,-7.89830636978149,108.33048248291,270617204949,"inertial","270617","204949",2017-07-23 20:49:49,111
"112",-0.18377685546875,-0.14093017578125,0.9315185546875,0.58319091796875,0.538330078125,1.12152099609375,0.169540002942085,0.508199989795685,-0.0810599997639656,11.037938117981,-8.60308074951172,108.449150085449,270617204949,"inertial","270617","204949",2017-07-23 20:49:49,112
"113",-0.1773681640625,-0.14068603515625,0.9342041015625,0.64300537109375,0.67291259765625,1.24114990234375,0.167720004916191,0.511700034141541,-0.0879200026392937,10.6331176757812,-8.56407737731934,108.147598266602,270617204949,"inertial","270617","204949",2017-07-23 20:49:49,113
"114",-0.17669677734375,-0.1397705078125,0.94000244140625,0.79254150390625,0.874786376953125,0.142059326171875,0.165480002760887,0.505820035934448,-0.0863800048828125,10.5327672958374,-8.45743751525879,108.115608215332,270617204949,"inertial","270617","204949",2017-07-23 20:49:49,114
"115",-0.1837158203125,-0.13671875,0.93365478515625,1.09161376953125,0.590667724609375,-0.441131591796875,0.170800000429153,0.510580003261566,-0.0856800004839897,11.0173330307007,-8.33083820343018,108.496200561523,270617204949,"inertial","270617","204949",2017-07-23 20:49:49,115
"116",-0.1849365234375,-0.1365966796875,0.932861328125,0.85235595703125,0.8074951171875,-0.216827392578125,0.166040003299713,0.507080018520355,-0.0828800052404404,11.097936630249,-8.33048439025879,108.13069152832,270617204949,"inertial","270617","204949",2017-07-23 20:49:49,116
"117",-0.18365478515625,-0.13818359375,0.93701171875,1.1065673828125,0.874786376953125,-0.059814453125,0.164920002222061,0.511979997158051,-0.0837199985980988,10.9736642837524,-8.38909244537354,107.854888916016,270617204949,"inertial","270617","204949",2017-07-23 20:49:49,117
"118",-0.1788330078125,-0.136474609375,0.93658447265625,0.740203857421875,1.00936889648438,0.485992431640625,0.163939997553825,0.50652003288269,-0.0827400013804436,10.6996850967407,-8.29051780700684,107.934661865234,270617204950,"inertial","270617","204950",2017-07-23 20:49:50,118
"119",-0.1805419921875,-0.14068603515625,0.93450927734375,1.09909057617188,0.9869384765625,0.37384033203125,0.162960007786751,0.510439991950989,-0.0809200033545494,10.8155612945557,-8.56132221221924,107.705894470215,270617204950,"inertial","270617","204950",2017-07-23 20:49:50,119
"120",-0.1793212890625,-0.13885498046875,0.9368896484375,1.1663818359375,0.979461669921875,0.157012939453125,0.172760009765625,0.507920026779175,-0.0788200050592422,10.7210521697998,-8.43035125732422,108.784828186035,270617204950,"inertial","270617","204950",2017-07-23 20:49:50,120
"121",-0.1787109375,-0.1395263671875,0.93511962890625,1.17385864257812,0.97198486328125,0.635528564453125,0.167580008506775,0.508760035037994,-0.0753200054168701,10.7036418914795,-8.48632335662842,108.231323242188,270617204950,"inertial","270617","204950",2017-07-23 20:49:50,121
"122",-0.17498779296875,-0.14300537109375,0.9354248046875,1.21871948242188,1.256103515625,0.6878662109375,0.167439997196198,0.50848001241684,-0.0778400003910065,10.4767465591431,-8.69193553924561,108.226463317871,270617204950,"inertial","270617","204950",2017-07-23 20:49:50,122
"123",-0.17401123046875,-0.14056396484375,0.93585205078125,1.06918334960938,1.23367309570312,0.2392578125,0.168280005455017,0.510160028934479,-0.0728000029921532,10.4189529418945,-8.54191207885742,108.255516052246,270617204950,"inertial","270617","204950",2017-07-23 20:49:50,123
"124",-0.17218017578125,-0.14483642578125,0.93572998046875,1.29348754882812,1.17385864257812,0,0.168559998273849,0.507920026779175,-0.0799399986863136,10.3061037063599,-8.79867076873779,108.359107971191,270617204950,"inertial","270617","204950",2017-07-23 20:49:50,124
"125",-0.1717529296875,-0.145751953125,0.93170166015625,1.31591796875,1.18881225585938,-0.478515625,0.169119998812675,0.513240039348602,-0.0848399996757507,10.322039604187,-8.89107799530029,108.237800598145,270617204950,"inertial","270617","204950",2017-07-23 20:49:50,125
"126",-0.17333984375,-0.14544677734375,0.93536376953125,1.26358032226562,1.09161376953125,-1.136474609375,0.165200009942055,0.509320020675659,-0.0814800038933754,10.3768920898438,-8.83856964111328,107.970680236816,270617204950,"inertial","270617","204950",2017-07-23 20:49:50,126
"127",-0.17681884765625,-0.147705078125,0.9373779296875,1.32339477539062,1.375732421875,-0.859832763671875,0.166600003838539,0.510160028934479,-0.0795200020074844,10.5550088882446,-8.95461750030518,108.085182189941,270617204950,"inertial","270617","204950",2017-07-23 20:49:50,127
"128",-0.17401123046875,-0.1470947265625,0.93670654296875,1.20376586914062,1.41311645507812,0,0.167160004377365,0.509320020675659,-0.0740600004792213,10.3992166519165,-8.92450046539307,108.169952392578,270617204950,"inertial","270617","204950",2017-07-23 20:49:50,128
"129",-0.17083740234375,-0.14910888671875,0.93756103515625,1.30096435546875,1.54769897460938,0.485992431640625,0.165619999170303,0.506659984588623,-0.0728000029921532,10.2013702392578,-9.03658866882324,108.101837158203,270617204950,"inertial","270617","204950",2017-07-23 20:49:50,129
"130",-0.15655517578125,-0.151123046875,0.938232421875,0.964508056640625,1.50283813476562,0.88226318359375,0.163100004196167,0.510160028934479,-0.0763000026345253,9.35479927062988,-9.15015888214111,107.729263305664,270617204950,"inertial","270617","204950",2017-07-23 20:49:50,130
"131",-0.15899658203125,-0.152587890625,0.93341064453125,1.08413696289062,1.136474609375,0.4486083984375,0.163379997014999,0.510720014572144,-0.0747600048780441,9.54265117645264,-9.28421974182129,107.739540100098,270617204950,"inertial","270617","204950",2017-07-23 20:49:50,131
"132",-0.1588134765625,-0.14892578125,0.9354248046875,0.94207763671875,0.9271240234375,0.059814453125,0.164640009403229,0.511139988899231,-0.0799399986863136,9.51798248291016,-9.04594612121582,107.853935241699,270617204950,"inertial","270617","204950",2017-07-23 20:49:50,132
"133",-0.1597900390625,-0.1500244140625,0.94219970703125,0.95703125,0.919647216796875,0.201873779296875,0.168559998273849,0.512260019779205,-0.0743400007486343,9.5078067779541,-9.04713439941406,108.213874816895,270617204950,"inertial","270617","204950",2017-07-23 20:49:50,133
"134",-0.15667724609375,-0.1507568359375,0.93988037109375,0.755157470703125,0.6878662109375,0.201873779296875,0.167580008506775,0.510580003261566,-0.0830200016498566,9.34680557250977,-9.11262321472168,108.170608520508,270617204950,"inertial","270617","204950",2017-07-23 20:49:50,134
"135",-0.1546630859375,-0.15142822265625,0.937744140625,0.85235595703125,0.46356201171875,0.097198486328125,0.169260010123253,0.510300040245056,-0.0764399990439415,9.24784755706787,-9.17301654815674,108.350021362305,270617204950,"inertial","270617","204950",2017-07-23 20:49:50,135
"136",-0.14910888671875,-0.1546630859375,0.9384765625,0.665435791015625,0.37384033203125,0.07476806640625,0.172200009226799,0.511979997158051,-0.0737800002098083,8.90970325469971,-9.35835742950439,108.589920043945,270617204950,"inertial","270617","204950",2017-07-23 20:49:50,136
"137",-0.149658203125,-0.1522216796875,0.93896484375,0.545806884765625,0.007476806640625,-0.19439697265625,0.167020007967949,0.516180038452148,-0.0800800025463104,8.94118213653564,-9.20847606658936,107.929985046387,270617204950,"inertial","270617","204950",2017-07-23 20:49:50,137
"138",-0.1571044921875,-0.1478271484375,0.9404296875,0.299072265625,-0.291595458984375,-0.231781005859375,0.165480002760887,0.513100028038025,-0.0819000005722046,9.37103939056396,-8.9332857131958,107.875038146973,270617204950,"inertial","270617","204950",2017-07-23 20:49:50,138
"139",-0.16314697265625,-0.14593505859375,0.9378662109375,0.261688232421875,-0.418701171875,-0.1495361328125,0.167860001325607,0.511979997158051,-0.0784000009298325,9.75309467315674,-8.84448432922363,108.152473449707,270617204950,"inertial","270617","204950",2017-07-23 20:49:50,139
"140",-0.16754150390625,-0.14373779296875,0.93707275390625,0.22430419921875,-0.52337646484375,-0.411224365234375,0.166320011019707,0.509039998054504,-0.0774200037121773,10.022141456604,-8.72064113616943,108.093910217285,270617204950,"inertial","270617","204950",2017-07-23 20:49:50,140
"141",-0.17462158203125,-0.143798828125,0.93829345703125,0.321502685546875,-0.426177978515625,-0.171966552734375,0.167300000786781,0.511979997158051,-0.0823200047016144,10.4234647750854,-8.71311187744141,108.09587097168,270617204951,"inertial","270617","204951",2017-07-23 20:49:51,141
"142",-0.16888427734375,-0.144287109375,0.936767578125,0.321502685546875,-0.25421142578125,0.11962890625,0.170239999890327,0.51254004240036,-0.0810599997639656,10.1030941009521,-8.75626087188721,108.373886108398,270617204951,"inertial","270617","204951",2017-07-23 20:49:51,142
"143",-0.1751708984375,-0.14556884765625,0.9346923828125,0.336456298828125,-0.306549072265625,-0.35888671875,0.171499997377396,0.510160028934479,-0.0814800038933754,10.4910755157471,-8.85212421417236,108.581047058105,270617204951,"inertial","270617","204951",2017-07-23 20:49:51,143
"144",-0.17877197265625,-0.14453125,0.931640625,0.366363525390625,-0.1495361328125,-0.8673095703125,0.172059997916222,0.510860025882721,-0.0781200006604195,10.7370157241821,-8.81835746765137,108.613761901855,270617204951,"inertial","270617","204951",2017-07-23 20:49:51,144
"145",-0.1822509765625,-0.146240234375,0.93438720703125,0.680389404296875,0.097198486328125,-0.261688232421875,0.171920001506805,0.508199989795685,-0.0767199993133545,10.907356262207,-8.89515781402588,108.690269470215,270617204951,"inertial","270617","204951",2017-07-23 20:49:51,145
"146",-0.17987060546875,-0.14312744140625,0.93585205078125,0.70281982421875,0.11962890625,-0.127105712890625,0.167999997735023,0.510160028934479,-0.0819000005722046,10.757453918457,-8.69533061981201,108.227149963379,270617204951,"inertial","270617","204951",2017-07-23 20:49:51,146
"147",-0.18072509765625,-0.14300537109375,0.9334716796875,0.740203857421875,0.351409912109375,0.052337646484375,0.161700010299683,0.511839985847473,-0.0813400000333786,10.8338556289673,-8.70984363555908,107.532318115234,270617204951,"inertial","270617","204951",2017-07-23 20:49:51,147
"148",-0.17205810546875,-0.14312744140625,0.935546875,0.8074951171875,0.515899658203125,0.0299072265625,0.161980003118515,0.513940036296844,-0.0819000005722046,10.3036489486694,-8.69812393188477,107.493438720703,270617204951,"inertial","270617","204951",2017-07-23 20:49:51,148
"149",-0.17254638671875,-0.14141845703125,0.9385986328125,0.85235595703125,0.58319091796875,-0.216827392578125,0.165059998631477,0.505959987640381,-0.0834400057792664,10.3028545379639,-8.56829357147217,108.067947387695,270617204951,"inertial","270617","204951",2017-07-23 20:49:51,149
"150",-0.17327880859375,-0.13916015625,0.93768310546875,0.8074951171875,0.396270751953125,-0.2691650390625,0.162680000066757,0.505680024623871,-0.0812000036239624,10.3588800430298,-8.44156551361084,107.833267211914,270617204951,"inertial","270617","204951",2017-07-23 20:49:51,150
"151",-0.17315673828125,-0.143798828125,0.9390869140625,0.897216796875,0.3289794921875,-0.16448974609375,0.169119998812675,0.505120038986206,-0.0859600007534027,10.3295679092407,-8.70586204528809,108.511138916016,270617204951,"inertial","270617","204951",2017-07-23 20:49:51,151
"152",-0.16815185546875,-0.14410400390625,0.93792724609375,0.680389404296875,0.321502685546875,-0.186920166015625,0.165900006890297,0.508620023727417,-0.0778400003910065,10.0485610961914,-8.73467445373535,108.065116882324,270617204951,"inertial","270617","204951",2017-07-23 20:49:51,152
"153",-0.172607421875,-0.14288330078125,0.93603515625,0.76263427734375,0.2392578125,-0.560760498046875,0.166740000247955,0.512260019779205,-0.0807799994945526,10.331075668335,-8.67905235290527,108.030006408691,270617204951,"inertial","270617","204951",2017-07-23 20:49:51,153
"154",-0.177490234375,-0.1414794921875,0.9337158203125,0.575714111328125,0.34393310546875,-0.396270751953125,0.165200009942055,0.50848001241684,-0.0826000049710274,10.6442794799805,-8.61609172821045,107.99845123291,270617204951,"inertial","270617","204951",2017-07-23 20:49:51,154
"155",-0.1751708984375,-0.141845703125,0.9361572265625,0.657958984375,0.127105712890625,0.082244873046875,0.166040003299713,0.508760035037994,-0.0837199985980988,10.4815139770508,-8.61586952209473,108.074722290039,270617204951,"inertial","270617","204951",2017-07-23 20:49:51,155
"156",-0.175537109375,-0.14239501953125,0.9366455078125,0.545806884765625,0.321502685546875,-0.01495361328125,0.166320011019707,0.50736004114151,-0.0804999992251396,10.4968128204346,-8.64429187774658,108.149894714355,270617204951,"inertial","270617","204951",2017-07-23 20:49:51,156
"157",-0.17742919921875,-0.140869140625,0.93951416015625,0.785064697265625,0.321502685546875,0.171966552734375,0.167160004377365,0.511280000209808,-0.0845599994063377,10.578932762146,-8.52730751037598,108.104850769043,270617204951,"inertial","270617","204951",2017-07-23 20:49:51,157
"158",-0.18017578125,-0.142822265625,0.93707275390625,0.829925537109375,0.35888671875,0.13458251953125,0.167300000786781,0.510720014572144,-0.0849800035357475,10.7623929977417,-8.66594123840332,108.137596130371,270617204952,"inertial","270617","204952",2017-07-23 20:49:52,158
"159",-0.18023681640625,-0.14105224609375,0.93988037109375,0.785064697265625,0.426177978515625,-0.35888671875,0.165760010480881,0.511000037193298,-0.0900200009346008,10.7381677627563,-8.53495025634766,107.972213745117,270617204952,"inertial","270617","204952",2017-07-23 20:49:52,159
"160",-0.180419921875,-0.1412353515625,0.936767578125,0.680389404296875,0.538330078125,-0.426177978515625,0.159600004553795,0.510020017623901,-0.0810737535357475,10.7826290130615,-8.57384204864502,107.376411437988,270617204952,"inertial","270617","204952",2017-07-23 20:49:52,160
"161",-0.1773681640625,-0.14056396484375,0.9305419921875,0.964508056640625,0.73272705078125,-0.19439697265625,0.169400006532669,0.504140019416809,-0.0784000009298325,10.6732940673828,-8.58993053436279,108.573265075684,270617204952,"inertial","270617","204952",2017-07-23 20:49:52,161
"162",-0.17791748046875,-0.14398193359375,0.93621826171875,1.05422973632812,0.426177978515625,-0.2093505859375,0.161700010299683,0.508620023727417,-0.0793800055980682,10.6379299163818,-8.74307441711426,107.636451721191,270617204952,"inertial","270617","204952",2017-07-23 20:49:52,162
"163",-0.174072265625,-0.1439208984375,0.93365478515625,0.73272705078125,0.55328369140625,0.007476806640625,0.165900006890297,0.505120038986206,-0.0821800008416176,10.4405174255371,-8.76304912567139,108.182083129883,270617204952,"inertial","270617","204952",2017-07-23 20:49:52,163
"164",-0.17181396484375,-0.14306640625,0.93841552734375,0.710296630859375,0.411224365234375,-0.097198486328125,0.164920002222061,0.509739995002747,-0.0835800021886826,10.2593555450439,-8.66829776763916,107.928337097168,270617204952,"inertial","270617","204952",2017-07-23 20:49:52,164
"165",-0.17596435546875,-0.141845703125,0.9345703125,0.755157470703125,0.58319091796875,-0.097198486328125,0.167720004916191,0.508620023727417,-0.0761599987745285,10.5450143814087,-8.63027954101562,108.250228881836,270617204952,"inertial","270617","204952",2017-07-23 20:49:52,165
"166",-0.17156982421875,-0.14312744140625,0.93798828125,0.85235595703125,0.485992431640625,0.142059326171875,0.166740000247955,0.509039998054504,-0.0814800038933754,10.2494525909424,-8.67582988739014,108.136611938477,270617204952,"inertial","270617","204952",2017-07-23 20:49:52,166
"167",-0.16986083984375,-0.142822265625,0.936279296875,0.657958984375,0.538330078125,0.112152099609375,0.163240000605583,0.505820035934448,-0.0786800011992455,10.1677017211914,-8.67317390441895,107.886108398438,270617204952,"inertial","270617","204952",2017-07-23 20:49:52,167
"168",-0.17010498046875,-0.14483642578125,0.93548583984375,0.680389404296875,0.3887939453125,-0.10467529296875,0.167720004916191,0.510020017623901,-0.0847000032663345,10.1870470046997,-8.80093097686768,108.20344543457,270617204952,"inertial","270617","204952",2017-07-23 20:49:52,168
"169",-0.1767578125,-0.1407470703125,0.937255859375,0.545806884765625,0.25421142578125,-0.291595458984375,0.165340006351471,0.511979997158051,-0.0845599994063377,10.5642757415771,-8.54025268554688,107.8974609375,270617204952,"inertial","270617","204952",2017-07-23 20:49:52,169
"170",-0.17303466796875,-0.1400146484375,0.9364013671875,0.91217041015625,0.657958984375,0,0.162119999527931,0.508060038089752,-0.0859600007534027,10.3568058013916,-8.50410175323486,107.697685241699,270617204952,"inertial","270617","204952",2017-07-23 20:49:52,170
"171",-0.17626953125,-0.1416015625,0.93634033203125,0.635528564453125,0.49346923828125,-0.299072265625,0.167160004377365,0.507220029830933,-0.0792400017380714,10.544207572937,-8.59960556030273,108.240211486816,270617204952,"inertial","270617","204952",2017-07-23 20:49:52,171
"172",-0.17706298828125,-0.1412353515625,0.9390869140625,0.6280517578125,0.35888671875,-0.157012939453125,0.164920002222061,0.508760035037994,-0.0830200016498566,10.5615901947021,-8.55298042297363,107.960655212402,270617204952,"inertial","270617","204952",2017-07-23 20:49:52,172
"173",-0.1756591796875,-0.14208984375,0.9378662109375,0.6280517578125,0.545806884765625,-0.2392578125,0.162680000066757,0.505959987640381,-0.0806400030851364,10.4913787841797,-8.61498546600342,107.824020385742,270617204952,"inertial","270617","204952",2017-07-23 20:49:52,173
"174",-0.17724609375,-0.14215087890625,0.93719482421875,0.949554443359375,0.52337646484375,-0.411224365234375,0.164080008864403,0.505400002002716,-0.0786800011992455,10.5911703109741,-8.62471199035645,107.986213684082,270617204952,"inertial","270617","204952",2017-07-23 20:49:52,174
"175",-0.17669677734375,-0.14288330078125,0.93634033203125,0.620574951171875,0.441131591796875,-0.3887939453125,0.166320011019707,0.511839985847473,-0.0733600035309792,10.5670900344849,-8.67626667022705,108.001327514648,270617204952,"inertial","270617","204952",2017-07-23 20:49:52,175
"176",-0.174560546875,-0.14306640625,0.93310546875,0.485992431640625,0.246734619140625,-0.0897216796875,0.168840005993843,0.507920026779175,-0.0806400030851364,10.4764528274536,-8.71687126159668,108.387557983398,270617204952,"inertial","270617","204952",2017-07-23 20:49:52,176
"177",-0.1749267578125,-0.14422607421875,0.93878173828125,0.88226318359375,0.46356201171875,-0.246734619140625,0.164780005812645,0.506380021572113,-0.0793800055980682,10.4353952407837,-8.7341251373291,108.025291442871,270617204952,"inertial","270617","204952",2017-07-23 20:49:52,177
"178",-0.1771240234375,-0.14013671875,0.93499755859375,0.620574951171875,0.291595458984375,-0.2392578125,0.166179999709129,0.510300040245056,-0.0830200016498566,10.6110973358154,-8.52399826049805,108.03791809082,270617204953,"inertial","270617","204953",2017-07-23 20:49:53,178
"179",-0.17852783203125,-0.1429443359375,0.93560791015625,0.7476806640625,0.299072265625,0.0299072265625,0.162260010838509,0.50764000415802,-0.0893200039863586,10.6819667816162,-8.68660831451416,107.72575378418,270617204953,"inertial","270617","204953",2017-07-23 20:49:53,179
"180",-0.17462158203125,-0.14111328125,0.93743896484375,0.85235595703125,0.478515625,0.3289794921875,0.165760010480881,0.504840016365051,-0.0875000059604645,10.4368867874146,-8.56049728393555,108.17716217041,270617204953,"inertial","270617","204953",2017-07-23 20:49:53,180
"181",-0.17852783203125,-0.14166259765625,0.9326171875,0.7177734375,0.3887939453125,0.10467529296875,0.164360001683235,0.50848001241684,-0.0796599984169006,10.7168083190918,-8.6370849609375,107.912796020508,270617204953,"inertial","270617","204953",2017-07-23 20:49:53,181
"182",-0.17657470703125,-0.14154052734375,0.93597412109375,0.785064697265625,0.456085205078125,-0.3289794921875,0.163939997553825,0.508760035037994,-0.0806400030851364,10.5661020278931,-8.59926700592041,107.860725402832,270617204953,"inertial","270617","204953",2017-07-23 20:49:53,182
"183",-0.18115234375,-0.14019775390625,0.93682861328125,0.740203857421875,0.545806884765625,-0.157012939453125,0.165200009942055,0.513100028038025,-0.0862400010228157,10.826416015625,-8.51123332977295,107.846717834473,270617204953,"inertial","270617","204953",2017-07-23 20:49:53,183
"184",-0.1788330078125,-0.1370849609375,0.9373779296875,0.500946044921875,0.4486083984375,-0.097198486328125,0.162960007786751,0.511839985847473,-0.0841400027275085,10.6900491714478,-8.32012748718262,107.66047668457,270617204953,"inertial","270617","204953",2017-07-23 20:49:53,184
"185",-0.1796875,-0.1424560546875,0.93853759765625,0.680389404296875,0.530853271484375,-0.186920166015625,0.162260010838509,0.50736004114151,-0.0816200003027916,10.7185182571411,-8.63076972961426,107.734916687012,270617204953,"inertial","270617","204953",2017-07-23 20:49:53,185
"186",-0.17706298828125,-0.1412353515625,0.93682861328125,0.695343017578125,0.590667724609375,-0.127105712890625,0.166320011019707,0.505680024623871,-0.0830200016498566,10.5859222412109,-8.57329177856445,108.20622253418,270617204953,"inertial","270617","204953",2017-07-23 20:49:53,186
"187",-0.17681884765625,-0.13995361328125,0.9345703125,0.725250244140625,0.49346923828125,-0.216827392578125,0.167860001325607,0.511979997158051,-0.0837199985980988,10.5981559753418,-8.51685905456543,108.152473449707,270617204953,"inertial","270617","204953",2017-07-23 20:49:53,187
"188",-0.17694091796875,-0.13873291015625,0.93798828125,0.650482177734375,0.4486083984375,-0.336456298828125,0.166460007429123,0.509880006313324,-0.0813400000333786,10.5703115463257,-8.41332149505615,108.080253601074,270617204953,"inertial","270617","204953",2017-07-23 20:49:53,188
"189",-0.17755126953125,-0.1392822265625,0.93524169921875,0.82244873046875,0.530853271484375,-0.186920166015625,0.163240000605583,0.5067999958992,-0.0837199985980988,10.6348438262939,-8.47060012817383,107.853721618652,270617204953,"inertial","270617","204953",2017-07-23 20:49:53,189
"190",-0.17779541015625,-0.14129638671875,0.93585205078125,1.00189208984375,0.59814453125,-0.067291259765625,0.158619999885559,0.50161999464035,-0.0804999992251396,10.6392116546631,-8.58575820922852,107.547760009766,270617204953,"inertial","270617","204953",2017-07-23 20:49:53,190
"191",-0.17529296875,-0.14239501953125,0.93572998046875,0.83740234375,0.411224365234375,-0.28411865234375,0.162820011377335,0.508760035037994,-0.0826000049710274,10.4923391342163,-8.65262126922607,107.746391296387,270617204953,"inertial","270617","204953",2017-07-23 20:49:53,191
"192",-0.17864990234375,-0.14459228515625,0.93731689453125,0.82244873046875,0.426177978515625,-0.28411865234375,0.163240000605583,0.509320020675659,-0.0810599997639656,10.6677474975586,-8.76943016052246,107.770950317383,270617204953,"inertial","270617","204953",2017-07-23 20:49:53,192
"193",-0.18035888671875,-0.13836669921875,0.9342041015625,0.79254150390625,0.695343017578125,0.097198486328125,0.159740000963211,0.509600043296814,-0.0775600001215935,10.8120489120483,-8.42493438720703,107.404197692871,270617204953,"inertial","270617","204953",2017-07-23 20:49:53,193
"194",-0.18194580078125,-0.13818359375,0.93292236328125,0.67291259765625,0.530853271484375,-0.04486083984375,0.164920002222061,0.507499992847443,-0.0824600011110306,10.9195194244385,-8.42533874511719,108.002372741699,270617204953,"inertial","270617","204953",2017-07-23 20:49:53,194
"195",-0.17413330078125,-0.1400146484375,0.93670654296875,0.770111083984375,0.85235595703125,-0.142059326171875,0.164080008864403,0.506940007209778,-0.0852600038051605,10.4178791046143,-8.50137138366699,107.935081481934,270617204953,"inertial","270617","204953",2017-07-23 20:49:53,195
"196",-0.17877197265625,-0.1402587890625,0.93609619140625,0.777587890625,0.770111083984375,0.082244873046875,0.161700010299683,0.510020017623901,-0.0859600007534027,10.6953430175781,-8.52144908905029,107.591033935547,270617204953,"inertial","270617","204953",2017-07-23 20:49:53,196
"197",-0.1783447265625,-0.13922119140625,0.93560791015625,0.91217041015625,0.777587890625,-0.142059326171875,0.165760010480881,0.508060038089752,-0.0883399993181229,10.6773815155029,-8.4636754989624,108.069465637207,270617204953,"inertial","270617","204953",2017-07-23 20:49:53,197
"198",-0.177001953125,-0.13873291015625,0.935302734375,1.08413696289062,0.61309814453125,0.127105712890625,0.158619999885559,0.509180009365082,-0.0813400000333786,10.6029119491577,-8.43713188171387,107.302879333496,270617204954,"inertial","270617","204954",2017-07-23 20:49:54,198
"199",-0.174560546875,-0.1397705078125,0.93670654296875,1.00936889648438,0.814971923828125,0.059814453125,0.164080008864403,0.511560022830963,-0.0839999988675117,10.4432668685913,-8.4867639541626,107.783355712891,270617204954,"inertial","270617","204954",2017-07-23 20:49:54,199
"200",-0.1739501953125,-0.14300537109375,0.93695068359375,1.03927612304688,0.710296630859375,0,0.162400007247925,0.512120008468628,-0.0845599994063377,10.3997735977173,-8.6779956817627,107.594505310059,270617204954,"inertial","270617","204954",2017-07-23 20:49:54,200
"201",-0.17144775390625,-0.14251708984375,0.9342041015625,0.94207763671875,0.755157470703125,-0.276641845703125,0.167300000786781,0.508340001106262,-0.0879200026392937,10.2829723358154,-8.67385578155518,108.216911315918,270617204954,"inertial","270617","204954",2017-07-23 20:49:54,201
"202",-0.17132568359375,-0.143310546875,0.93389892578125,0.740203857421875,0.64300537109375,-0.28411865234375,0.159600004553795,0.50848001241684,-0.0812000036239624,10.2777404785156,-8.72421264648438,107.425857543945,270617204954,"inertial","270617","204954",2017-07-23 20:49:54,202
"203",-0.173583984375,-0.14117431640625,0.93841552734375,0.85235595703125,0.5682373046875,-0.127105712890625,0.160720005631447,0.509320020675659,-0.0809200033545494,10.365795135498,-8.55536460876465,107.51350402832,270617204954,"inertial","270617","204954",2017-07-23 20:49:54,203
"204",-0.1756591796875,-0.14093017578125,0.9365234375,0.710296630859375,0.538330078125,-0.299072265625,0.162400007247925,0.509880006313324,-0.0729399994015694,10.5076341629028,-8.55778789520264,107.667007446289,270617204954,"inertial","270617","204954",2017-07-23 20:49:54,204
"205",-0.177978515625,-0.14324951171875,0.93487548828125,0.770111083984375,0.3887939453125,-0.22430419921875,0.160580009222031,0.509320020675659,-0.0782600045204163,10.6573095321655,-8.71158504486084,107.499183654785,270617204954,"inertial","270617","204954",2017-07-23 20:49:54,205
"206",-0.17718505859375,-0.14422607421875,0.9337158203125,0.844879150390625,0.43365478515625,0.231781005859375,0.161420002579689,0.504700005054474,-0.0751800015568733,10.6218290328979,-8.78077602386475,107.736022949219,270617204954,"inertial","270617","204954",2017-07-23 20:49:54,206
"207",-0.1741943359375,-0.14453125,0.93634033203125,0.590667724609375,0.31402587890625,0.201873779296875,0.157920002937317,0.509880006313324,-0.0767199993133545,10.4180469512939,-8.7747859954834,107.208793640137,270617204954,"inertial","270617","204954",2017-07-23 20:49:54,207
"208",-0.17742919921875,-0.14532470703125,0.936767578125,0.844879150390625,0.37384033203125,-0.2093505859375,0.161980003118515,0.509180009365082,-0.0819000005722046,10.6012191772461,-8.8182430267334,107.646873474121,270617204954,"inertial","270617","204954",2017-07-23 20:49:54,208
"209",-0.1824951171875,-0.1417236328125,0.93212890625,0.919647216796875,0.740203857421875,-0.351409912109375,0.166600003838539,0.508340001106262,-0.0777000039815903,10.9546298980713,-8.64520835876465,108.145698547363,270617204954,"inertial","270617","204954",2017-07-23 20:49:54,209
"210",-0.18804931640625,-0.13604736328125,0.93487548828125,0.82244873046875,0.73272705078125,-0.186920166015625,0.165760010480881,0.504559993743896,-0.0798000022768974,11.257716178894,-8.27982234954834,108.186584472656,270617204954,"inertial","270617","204954",2017-07-23 20:49:54,210
"211",-0.1859130859375,-0.13543701171875,0.9354248046875,0.829925537109375,1.09161376953125,0.58319091796875,0.164780005812645,0.509600043296814,-0.0855400040745735,11.1278057098389,-8.23841381072998,107.918701171875,270617204954,"inertial","270617","204954",2017-07-23 20:49:54,211
"212",-0.18109130859375,-0.13885498046875,0.933837890625,0.755157470703125,0.88226318359375,1.016845703125,0.161280006170273,0.509460031986237,-0.0781200006604195,10.85817527771,-8.45750331878662,107.566246032715,270617204954,"inertial","270617","204954",2017-07-23 20:49:54,212
"213",-0.18463134765625,-0.14373779296875,0.93377685546875,1.016845703125,1.20376586914062,0.142059326171875,0.160439997911453,0.511000037193298,-0.0793800055980682,11.0575895309448,-8.75094604492188,107.430854797363,270617204954,"inertial","270617","204954",2017-07-23 20:49:54,213
"214",-0.1861572265625,-0.1376953125,0.9334716796875,1.21871948242188,1.854248046875,0.43365478515625,0.160439997911453,0.513520002365112,-0.0778400003910065,11.1605424880981,-8.39112186431885,107.350463867188,270617204954,"inertial","270617","204954",2017-07-23 20:49:54,214
"215",-0.1796875,-0.14141845703125,0.9337158203125,0.94207763671875,1.57760620117188,1.38320922851562,0.167300000786781,0.509600043296814,-0.0793800055980682,10.7730875015259,-8.61243057250977,108.174835205078,270617204954,"inertial","270617","204954",2017-07-23 20:49:54,215
"216",-0.16943359375,-0.14141845703125,0.93988037109375,0.979461669921875,1.45050048828125,1.2860107421875,0.165760010480881,0.505680024623871,-0.0789600014686584,10.1076459884644,-8.55678176879883,108.148948669434,270617204954,"inertial","270617","204954",2017-07-23 20:49:54,216
"217",-0.15802001953125,-0.14288330078125,0.93865966796875,1.1663818359375,1.45050048828125,1.06170654296875,0.168840005993843,0.510720014572144,-0.0816200003027916,9.44909000396729,-8.65515422821045,108.293479919434,270617204955,"inertial","270617","204955",2017-07-23 20:49:55,217
"218",-0.16510009765625,-0.14312744140625,0.93951416015625,0.919647216796875,1.41311645507812,0.6280517578125,0.167300000786781,0.513520002365112,-0.0837199985980988,9.85534191131592,-8.66195297241211,107.976371765137,270617204955,"inertial","270617","204955",2017-07-23 20:49:55,218
"219",-0.1636962890625,-0.14910888671875,0.93475341796875,1.375732421875,1.4056396484375,-0.216827392578125,0.165900006890297,0.512400031089783,-0.0838600024580956,9.81146144866943,-9.06328105926514,107.940422058105,270617204955,"inertial","270617","204955",2017-07-23 20:49:55,219
"220",-0.1649169921875,-0.15057373046875,0.9342041015625,1.08413696289062,1.2860107421875,-0.755157470703125,0.166320011019707,0.51366001367569,-0.0784000009298325,9.88636875152588,-9.15610885620117,107.94164276123,270617204955,"inertial","270617","204955",2017-07-23 20:49:55,220
"221",-0.17486572265625,-0.14959716796875,0.9329833984375,1.08413696289062,1.03927612304688,-1.1065673828125,0.167580008506775,0.510020017623901,-0.0751800015568733,10.4846830368042,-9.10942649841309,108.189247131348,270617204955,"inertial","270617","204955",2017-07-23 20:49:55,221
"222",-0.1749267578125,-0.1495361328125,0.9332275390625,1.256103515625,1.23367309570312,-0.800018310546875,0.167160004377365,0.513379991054535,-0.0791000053286552,10.4857501983643,-9.10342979431152,108.035598754883,270617204955,"inertial","270617","204955",2017-07-23 20:49:55,222
"223",-0.17144775390625,-0.14739990234375,0.93743896484375,1.08413696289062,1.36825561523438,0.201873779296875,0.166880011558533,0.513379991054535,-0.0781200006604195,10.2411394119263,-8.93584251403809,108.007339477539,270617204955,"inertial","270617","204955",2017-07-23 20:49:55,223
"224",-0.16900634765625,-0.14862060546875,0.93792724609375,1.14395141601562,1.81686401367188,1.74209594726562,0.170660004019737,0.513100028038025,-0.0799399986863136,10.0913228988647,-9.00402355194092,108.397422790527,270617204955,"inertial","270617","204955",2017-07-23 20:49:55,224
"225",-0.15911865234375,-0.150634765625,0.93798828125,0.874786376953125,1.65237426757812,2.37762451171875,0.167580008506775,0.507080018520355,-0.0792400017380714,9.50833320617676,-9.12342643737793,108.287712097168,270617204955,"inertial","270617","204955",2017-07-23 20:49:55,225
"226",-0.159912109375,-0.15179443359375,0.9351806640625,0.88226318359375,1.87667846679688,1.98135375976562,0.167439997196198,0.512679994106293,-0.0806400030851364,9.58048152923584,-9.21959400177002,108.086906433105,270617204955,"inertial","270617","204955",2017-07-23 20:49:55,226
"227",-0.15509033203125,-0.151123046875,0.9373779296875,0.844879150390625,1.375732421875,1.42807006835938,0.169679999351501,0.513520002365112,-0.0823200047016144,9.27688694000244,-9.15835857391357,108.284858703613,270617204955,"inertial","270617","204955",2017-07-23 20:49:55,227
"228",-0.15594482421875,-0.15130615234375,0.93951416015625,1.11404418945312,0.897216796875,-1.016845703125,0.168559998273849,0.510580003261566,-0.0852600038051605,9.30651378631592,-9.14877128601074,108.269828796387,270617204955,"inertial","270617","204955",2017-07-23 20:49:55,228
"229",-0.15887451171875,-0.1558837890625,0.93804931640625,1.39816284179688,0.7476806640625,-2.13836669921875,0.170100003480911,0.510860025882721,-0.0788200050592422,9.48512268066406,-9.43511581420898,108.416107177734,270617204955,"inertial","270617","204955",2017-07-23 20:49:55,229
"230",-0.1500244140625,-0.1505126953125,0.94134521484375,1.17385864257812,0.127105712890625,-1.495361328125,0.170660004019737,0.507220029830933,-0.0833000019192696,8.9434814453125,-9.08419132232666,108.59610748291,270617204955,"inertial","270617","204955",2017-07-23 20:49:55,230
"231",-0.14874267578125,-0.149169921875,0.93658447265625,0.67291259765625,-0.07476806640625,-1.03179931640625,0.165200009942055,0.507780015468597,-0.0847000032663345,8.91349601745605,-9.0494966506958,108.021659851074,270617204955,"inertial","270617","204955",2017-07-23 20:49:55,231
"232",-0.14154052734375,-0.1513671875,0.93695068359375,0.471038818359375,-0.515899658203125,0.097198486328125,0.164499998092651,0.507220029830933,-0.0742000043392181,8.48209285736084,-9.17701435089111,107.96875,270617204955,"inertial","270617","204955",2017-07-23 20:49:55,232
"233",-0.138916015625,-0.15093994140625,0.94525146484375,0.059814453125,-0.88226318359375,0.246734619140625,0.166740000247955,0.510160028934479,-0.0749000012874603,8.25731182098389,-9.07252788543701,108.099388122559,270617204955,"inertial","270617","204955",2017-07-23 20:49:55,233
"234",-0.13934326171875,-0.1522216796875,0.9388427734375,-0.186920166015625,-1.5252685546875,-0.85235595703125,0.171360000967979,0.508060038089752,-0.0856800004839897,8.33493518829346,-9.2096529006958,108.638374328613,270617204955,"inertial","270617","204955",2017-07-23 20:49:55,234
"235",-0.15106201171875,-0.14373779296875,0.9393310546875,-0.336456298828125,-2.01126098632812,-1.66732788085938,0.170520007610321,0.509320020675659,-0.0789600014686584,9.03263187408447,-8.69999694824219,108.510513305664,270617204955,"inertial","270617","204955",2017-07-23 20:49:55,235
"236",-0.1693115234375,-0.13751220703125,0.94342041015625,-0.635528564453125,-2.04116821289062,-1.86920166015625,0.167020007967949,0.508760035037994,-0.0800800025463104,10.0701141357422,-8.2929859161377,108.174407958984,270617204955,"inertial","270617","204955",2017-07-23 20:49:55,236
"237",-0.18353271484375,-0.1383056640625,0.92913818359375,-0.31402587890625,-1.96640014648438,-1.5252685546875,0.160860002040863,0.511420011520386,-0.0809200033545494,11.0550384521484,-8.46652221679688,107.460235595703,270617204955,"inertial","270617","204955",2017-07-23 20:49:55,237
"238",-0.171142578125,-0.1466064453125,0.9373779296875,-0.059814453125,-1.734619140625,-2.56454467773438,0.166880011558533,0.509320020675659,-0.0835800021886826,10.2252283096313,-8.88908100128174,108.14151763916,270617204955,"inertial","270617","204955",2017-07-23 20:49:55,238
"239",-0.169677734375,-0.15191650390625,0.93701171875,0.10467529296875,-2.07107543945312,-4.04495239257812,0.160860002040863,0.50848001241684,-0.0824600011110306,10.134578704834,-9.2091588973999,107.55500793457,270617204955,"inertial","270617","204955",2017-07-23 20:49:55,239
"240",-0.1982421875,-0.14501953125,0.93218994140625,0.11962890625,-1.80938720703125,-4.22439575195312,0.161420002579689,0.50848001241684,-0.0792400017380714,11.8672018051147,-8.84254741668701,107.612350463867,270617204956,"inertial","270617","204956",2017-07-23 20:49:56,240
"241",-0.20684814453125,-0.1439208984375,0.9268798828125,0.2392578125,-1.80191040039062,-4.0374755859375,0.159879997372627,0.500919997692108,-0.0865200012922287,12.4360237121582,-8.826096534729,107.701667785645,270617204956,"inertial","270617","204956",2017-07-23 20:49:56,241
"242",-0.20306396484375,-0.1455078125,0.9302978515625,0.321502685546875,-1.27853393554688,-2.58697509765625,0.157220005989075,0.503440022468567,-0.0824600011110306,12.1698265075684,-8.88960361480713,107.343139648438,270617204956,"inertial","270617","204956",2017-07-23 20:49:56,242
"243",-0.20465087890625,-0.139404296875,0.9310302734375,0.19439697265625,-0.844879150390625,-1.57012939453125,0.154559999704361,0.498680025339127,-0.0834400057792664,12.2645845413208,-8.51570415496826,107.220207214355,270617204956,"inertial","270617","204956",2017-07-23 20:49:56,243
"244",-0.19744873046875,-0.13763427734375,0.9334716796875,0.142059326171875,-0.695343017578125,-1.26358032226562,0.153999999165535,0.504559993743896,-0.0779800042510033,11.8190822601318,-8.38745498657227,106.973052978516,270617204956,"inertial","270617","204956",2017-07-23 20:49:56,244
"245",-0.190185546875,-0.144775390625,0.93408203125,0.5084228515625,-0.418701171875,-0.8673095703125,0.158900007605553,0.503159999847412,-0.0830200016498566,11.3762760162354,-8.81029415130615,107.526329040527,270617204956,"inertial","270617","204956",2017-07-23 20:49:56,245
"246",-0.1981201171875,-0.13330078125,0.9302978515625,0.059814453125,-0.3289794921875,-0.650482177734375,0.151480004191399,0.503580033779144,-0.0838600024580956,11.9042778015137,-8.15430927276611,106.74161529541,270617204956,"inertial","270617","204956",2017-07-23 20:49:56,246
"247",-0.20672607421875,-0.12713623046875,0.93475341796875,0.186813354492188,-0.10467529296875,0.179443359375,0.153580009937286,0.49728000164032,-0.0796599984169006,12.3603067398071,-7.74529838562012,106.673072814941,270617204956,"inertial","270617","204956",2017-07-23 20:49:56,247
"248",-0.20623779296875,-0.1231689453125,0.93603515625,0.336456298828125,-0.186920166015625,0.43365478515625,0.150920003652573,0.504559993743896,-0.0870800018310547,12.322582244873,-7.49624443054199,106.652557373047,270617204956,"inertial","270617","204956",2017-07-23 20:49:56,248
"249",-0.21710205078125,-0.11474609375,0.933837890625,0.441131591796875,0.46356201171875,1.05422973632812,0.151620000600815,0.501900017261505,-0.0756000056862831,12.9934730529785,-7.00515079498291,106.809150695801,270617204956,"inertial","270617","204956",2017-07-23 20:49:56,249
"250",-0.206298828125,-0.1217041015625,0.912353515625,0.859832763671875,0.8673095703125,1.39816284179688,0.153999999165535,0.505820035934448,-0.0793800055980682,12.6330299377441,-7.59815835952759,106.93318939209,270617204956,"inertial","270617","204956",2017-07-23 20:49:56,250
"251",-0.20562744140625,-0.1309814453125,0.9281005859375,1.38320922851562,1.55517578125,-0.22430419921875,0.155260011553764,0.503440022468567,-0.0772799998521805,12.3737106323242,-8.03301620483398,107.139671325684,270617204956,"inertial","270617","204956",2017-07-23 20:49:56,251
"252",-0.2012939453125,-0.12030029296875,0.941650390625,1.30844116210938,1.72714233398438,-1.02432250976562,0.153720006346703,0.504140019416809,-0.0854000002145767,11.9718856811523,-7.28036975860596,106.95726776123,270617204956,"inertial","270617","204956",2017-07-23 20:49:56,252
"253",-0.20562744140625,-0.11785888671875,0.9322509765625,1.80191040039062,1.98883056640625,-1.81686401367188,0.156800001859665,0.508199989795685,-0.0765800029039383,12.3455619812012,-7.20533561706543,107.037300109863,270617204956,"inertial","270617","204956",2017-07-23 20:49:56,253
"254",-0.21282958984375,-0.11431884765625,0.93609619140625,1.95892333984375,2.14584350585938,-1.7645263671875,0.151900008320808,0.505400002002716,-0.0791000053286552,12.7175703048706,-6.96265363693237,106.728363037109,270617204956,"inertial","270617","204956",2017-07-23 20:49:56,254
"255",-0.19842529296875,-0.1292724609375,0.9248046875,1.80938720703125,2.6318359375,-0.261688232421875,0.154140010476112,0.505540013313293,-0.0806400030851364,11.9965257644653,-7.95744562149048,106.956550598145,270617204956,"inertial","270617","204956",2017-07-23 20:49:56,255
"256",-0.19830322265625,-0.11334228515625,0.9462890625,1.854248046875,2.40005493164062,1.02432250976562,0.153720006346703,0.50218003988266,-0.0844200029969215,11.7539167404175,-6.8300952911377,107.019630432129,270617204956,"inertial","270617","204956",2017-07-23 20:49:56,256
"257",-0.16961669921875,-0.13006591796875,0.94915771484375,1.74957275390625,3.46176147460938,1.55517578125,0.155260011553764,0.50764000415802,-0.0806400030851364,10.0400476455688,-7.80281352996826,107.006080627441,270617204957,"inertial","270617","204957",2017-07-23 20:49:57,257
"258",-0.17657470703125,-0.1451416015625,0.93023681640625,2.37014770507812,2.75894165039062,0.179443359375,0.152879998087883,0.507499992847443,-0.0828800052404404,10.6223020553589,-8.8681583404541,106.764472961426,270617204957,"inertial","270617","204957",2017-07-23 20:49:57,258
"259",-0.18768310546875,-0.1380615234375,0.93389892578125,2.25799560546875,2.811279296875,-1.016845703125,0.158059999346733,0.50848001241684,-0.0828800052404404,11.2441682815552,-8.40932559967041,107.267753601074,270617204957,"inertial","270617","204957",2017-07-23 20:49:57,259
"260",-0.19622802734375,-0.1357421875,0.92828369140625,2.40005493164062,3.170166015625,-0.82244873046875,0.157080009579659,0.506099998950958,-0.0883399993181229,11.8138704299927,-8.3193531036377,107.242958068848,270617204957,"inertial","270617","204957",2017-07-23 20:49:57,260
"261",-0.189208984375,-0.1351318359375,0.9310302734375,2.40005493164062,3.61129760742188,0.2691650390625,0.154700011014938,0.512400031089783,-0.0785400047898293,11.3715133666992,-8.2583703994751,106.799728393555,270617204957,"inertial","270617","204957",2017-07-23 20:49:57,261
"262",-0.17181396484375,-0.1429443359375,0.935546875,2.49725341796875,3.83560180664062,1.18881225585938,0.158340007066727,0.511979997158051,-0.0834400057792664,10.2896356582642,-8.68716621398926,107.185264587402,270617204957,"inertial","270617","204957",2017-07-23 20:49:57,262
"263",-0.15435791015625,-0.15252685546875,0.93646240234375,2.5421142578125,3.44680786132812,0.16448974609375,0.162119999527931,0.504559993743896,-0.0740600004792213,9.24032878875732,-9.25085067749023,107.812713623047,270617204957,"inertial","270617","204957",2017-07-23 20:49:57,263
"264",-0.152587890625,-0.1512451171875,0.9388427734375,2.25051879882812,3.2000732421875,-0.276641845703125,0.163240000605583,0.511700034141541,-0.0769999995827675,9.11590766906738,-9.15157222747803,107.693466186523,270617204957,"inertial","270617","204957",2017-07-23 20:49:57,264
"265",-0.1417236328125,-0.1572265625,0.94189453125,2.1832275390625,2.46734619140625,-0.43365478515625,0.161700010299683,0.513100028038025,-0.0728000029921532,8.44182109832764,-9.47677135467529,107.491889953613,270617204957,"inertial","270617","204957",2017-07-23 20:49:57,265
"266",-0.142578125,-0.162353515625,0.93756103515625,1.84677124023438,2.08602905273438,-0.785064697265625,0.163660004734993,0.509180009365082,-0.0694399997591972,8.5219898223877,-9.82424545288086,107.818382263184,270617204957,"inertial","270617","204957",2017-07-23 20:49:57,266
"267",-0.14447021484375,-0.15728759765625,0.94158935546875,1.66732788085938,1.78695678710938,-0.76263427734375,0.162119999527931,0.510300040245056,-0.0753200054168701,8.6055793762207,-9.48340034484863,107.624816894531,270617204957,"inertial","270617","204957",2017-07-23 20:49:57,267
"268",-0.14178466796875,-0.1590576171875,0.9393310546875,1.45050048828125,1.734619140625,-0.485992431640625,0.160439997911453,0.507920026779175,-0.0800800025463104,8.46483707427979,-9.61077213287354,107.53010559082,270617204957,"inertial","270617","204957",2017-07-23 20:49:57,268
"269",-0.14141845703125,-0.15899658203125,0.939453125,1.12152099609375,1.45050048828125,0.2093505859375,0.160439997911453,0.508199989795685,-0.0702800005674362,8.44232654571533,-9.60592746734619,107.521034240723,270617204957,"inertial","270617","204957",2017-07-23 20:49:57,269
"270",-0.1407470703125,-0.16046142578125,0.93939208984375,0.904693603515625,0.874786376953125,0.59814453125,0.161140009760857,0.511139988899231,-0.0683199986815453,8.40120887756348,-9.69337463378906,107.497779846191,270617204957,"inertial","270617","204957",2017-07-23 20:49:57,270
"271",-0.12896728515625,-0.1766357421875,0.9365234375,1.136474609375,0.665435791015625,0.007476806640625,0.160160005092621,0.511000037193298,-0.069580003619194,7.70660400390625,-10.6809663772583,107.402275085449,270617204957,"inertial","270617","204957",2017-07-23 20:49:57,271
"272",-0.12921142578125,-0.16168212890625,0.9439697265625,0.530853271484375,0.0299072265625,-0.530853271484375,0.161980003118515,0.513940036296844,-0.0761599987745285,7.68373346328735,-9.7192497253418,107.493438720703,270617204957,"inertial","270617","204957",2017-07-23 20:49:57,272
"273",-0.150634765625,-0.15216064453125,0.94122314453125,0.366363525390625,-0.022430419921875,-1.68228149414062,0.157499998807907,0.511280000209808,-0.0740600004792213,8.97796821594238,-9.18313884735107,107.121467590332,270617204957,"inertial","270617","204957",2017-07-23 20:49:57,273
"274",-0.16253662109375,-0.15374755859375,0.9405517578125,1.03927612304688,0.0897216796875,-1.36825561523438,0.160020008683205,0.514779984951019,-0.0742000043392181,9.67846488952637,-9.28376197814941,107.267921447754,270617204957,"inertial","270617","204957",2017-07-23 20:49:57,274
"275",-0.16290283203125,-0.1494140625,0.93695068359375,0.67291259765625,-0.052337646484375,0.485992431640625,0.158340007066727,0.513100028038025,-0.0806400030851364,9.74243354797363,-9.06057834625244,107.149955749512,270617204957,"inertial","270617","204957",2017-07-23 20:49:57,275
"276",-0.1644287109375,-0.15374755859375,0.93212890625,0.46356201171875,0.1495361328125,1.1065673828125,0.156379997730255,0.506240010261536,-0.0758799985051155,9.87339878082275,-9.36617088317871,107.166175842285,270617204957,"inertial","270617","204957",2017-07-23 20:49:57,276
"277",-0.1453857421875,-0.159912109375,0.9365234375,0.43365478515625,0.276641845703125,1.15142822265625,0.164080008864403,0.511560022830963,-0.0804999992251396,8.70020008087158,-9.68984889984131,107.783355712891,270617204958,"inertial","270617","204958",2017-07-23 20:49:58,277
"278",-0.1353759765625,-0.15789794921875,0.9420166015625,0.351409912109375,0.01495361328125,-0.01495361328125,0.164220005273819,0.512120008468628,-0.0718199983239174,8.06688690185547,-9.51528930664062,107.779335021973,270617204958,"inertial","270617","204958",2017-07-23 20:49:58,278
"279",-0.139404296875,-0.15655517578125,0.941162109375,0.456085205078125,-0.2691650390625,-0.76263427734375,0.164640009403229,0.515200018882751,-0.0774200037121773,8.31276035308838,-9.44424533843994,107.722068786621,270617204958,"inertial","270617","204958",2017-07-23 20:49:58,279
"280",-0.1390380859375,-0.15789794921875,0.9368896484375,0.3289794921875,-0.635528564453125,-1.55517578125,0.161420002579689,0.516460001468658,-0.0751800015568733,8.32557678222656,-9.5664005279541,107.356674194336,270617204958,"inertial","270617","204958",2017-07-23 20:49:58,280
"281",-0.14776611328125,-0.15960693359375,0.94000244140625,-0.022430419921875,-1.12152099609375,-1.30096435546875,0.162820011377335,0.514500021934509,-0.0793800055980682,8.8095817565918,-9.63658332824707,107.56063079834,270617204958,"inertial","270617","204958",2017-07-23 20:49:58,281
"282",-0.16448974609375,-0.1492919921875,0.9312744140625,-0.07476806640625,-0.88226318359375,-0.471038818359375,0.164360001683235,0.510020017623901,-0.0795200020074844,9.892991065979,-9.10755825042725,107.862152099609,270617204958,"inertial","270617","204958",2017-07-23 20:49:58,282
"283",-0.16607666015625,-0.14471435546875,0.93609619140625,-0.28411865234375,-0.844879150390625,1.00936889648438,0.162119999527931,0.505400002002716,-0.0737800002098083,9.94466400146484,-8.78798580169678,107.784973144531,270617204958,"inertial","270617","204958",2017-07-23 20:49:58,283
"284",-0.157958984375,-0.1494140625,0.94091796875,-0.22430419921875,-0.6878662109375,1.68975830078125,0.161980003118515,0.504840016365051,-0.0720999985933304,9.41400814056396,-9.02300548553467,107.789054870605,270617204958,"inertial","270617","204958",2017-07-23 20:49:58,284
"285",-0.15179443359375,-0.15087890625,0.93963623046875,-0.13458251953125,-1.15890502929688,1.06170654296875,0.160720005631447,0.509739995002747,-0.0750400051474571,9.06249809265137,-9.12220764160156,107.499961853027,270617204958,"inertial","270617","204958",2017-07-23 20:49:58,285
"286",-0.16156005859375,-0.14532470703125,0.93572998046875,-0.0897216796875,-0.9271240234375,-0.112152099609375,0.161280006170273,0.511700034141541,-0.0772799998521805,9.68208789825439,-8.82786655426025,107.494049072266,270617204958,"inertial","270617","204958",2017-07-23 20:49:58,286
"287",-0.1864013671875,-0.14599609375,0.9310302734375,0.052337646484375,-0.94207763671875,-1.54769897460938,0.158340007066727,0.510860025882721,-0.0744800046086311,11.1882772445679,-8.91205215454102,107.220710754395,270617204958,"inertial","270617","204958",2017-07-23 20:49:58,287
"288",-0.1800537109375,-0.14404296875,0.9361572265625,0.059814453125,-0.814971923828125,-1.375732421875,0.155260011553764,0.511700034141541,-0.0774200037121773,10.763258934021,-8.74728488922119,106.878845214844,270617204958,"inertial","270617","204958",2017-07-23 20:49:58,288
"289",-0.19122314453125,-0.14093017578125,0.9366455078125,0.58319091796875,-0.201873779296875,-0.52337646484375,0.165619999170303,0.505680024623871,-0.0784000009298325,11.4137420654297,-8.55668926239014,108.134620666504,270617204958,"inertial","270617","204958",2017-07-23 20:49:58,289
"290",-0.18389892578125,-0.1446533203125,0.93695068359375,0.396270751953125,0.171966552734375,0.979461669921875,0.162260010838509,0.505959987640381,-0.0758799985051155,10.9776611328125,-8.77645015716553,107.780906677246,270617204958,"inertial","270617","204958",2017-07-23 20:49:58,290
"291",-0.18292236328125,-0.1405029296875,0.92828369140625,0.46356201171875,0.19439697265625,1.1663818359375,0.159740000963211,0.50848001241684,-0.0753200054168701,11.0251159667969,-8.60683155059814,107.440216064453,270617204958,"inertial","270617","204958",2017-07-23 20:49:58,291
"292",-0.16387939453125,-0.14556884765625,0.93817138671875,0.456085205078125,0.13458251953125,0.82244873046875,0.160160005092621,0.505540013313293,-0.0765800029039383,9.79355049133301,-8.81981468200684,107.578712463379,270617204958,"inertial","270617","204958",2017-07-23 20:49:58,292
"293",-0.16717529296875,-0.1431884765625,0.938232421875,0.52337646484375,0.25421142578125,0.620574951171875,0.157499998807907,0.505120038986206,-0.0726599991321564,9.98970031738281,-8.67724895477295,107.317848205566,270617204958,"inertial","270617","204958",2017-07-23 20:49:58,293
"294",-0.15447998046875,-0.14935302734375,0.94000244140625,0.55328369140625,0.25421142578125,0.07476806640625,0.159319996833801,0.505259990692139,-0.0753200054168701,9.21895027160645,-9.02801990509033,107.501251220703,270617204958,"inertial","270617","204958",2017-07-23 20:49:58,294
"295",-0.16387939453125,-0.14935302734375,0.9351806640625,0.67291259765625,-0.01495361328125,-0.680389404296875,0.158619999885559,0.503719985485077,-0.0821800008416176,9.81754112243652,-9.07379531860352,107.479064941406,270617204958,"inertial","270617","204958",2017-07-23 20:49:58,295
"296",-0.18231201171875,-0.1385498046875,0.93231201171875,0.52337646484375,-0.1495361328125,-1.06170654296875,0.156939998269081,0.501900017261505,-0.0837199985980988,10.9471988677979,-8.45279598236084,107.364036560059,270617204959,"inertial","270617","204959",2017-07-23 20:49:59,296
"297",-0.18896484375,-0.1361083984375,0.9365234375,0.82244873046875,0.11962890625,-1.00189208984375,0.158619999885559,0.50218003988266,-0.0778400003910065,11.2920236587524,-8.26911163330078,107.529388427734,270617204959,"inertial","270617","204959",2017-07-23 20:49:59,297
"298",-0.1778564453125,-0.1358642578125,0.93829345703125,0.67291259765625,0.43365478515625,-0.022430419921875,0.154980003833771,0.509180009365082,-0.0768600031733513,10.6250047683716,-8.23912620544434,106.928764343262,270617204959,"inertial","270617","204959",2017-07-23 20:49:59,298
"299",-0.1787109375,-0.1265869140625,0.93585205078125,0.61309814453125,0.67291259765625,0.46356201171875,0.155260011553764,0.507080018520355,-0.0730800032615662,10.7157869338989,-7.70329189300537,107.023773193359,270617204959,"inertial","270617","204959",2017-07-23 20:49:59,299
"300",-0.1756591796875,-0.1375732421875,0.93536376953125,1.00936889648438,0.680389404296875,0.95703125,0.156660005450249,0.504420042037964,-0.0758799985051155,10.525465965271,-8.36707019805908,107.253463745117,270617204959,"inertial","270617","204959",2017-07-23 20:49:59,300
"301",-0.171630859375,-0.14276123046875,0.9305419921875,0.83740234375,0.665435791015625,0.785064697265625,0.157499998807907,0.505820035934448,-0.0756000056862831,10.3320550918579,-8.7221565246582,107.295310974121,270617204959,"inertial","270617","204959",2017-07-23 20:49:59,301
"302",-0.16998291015625,-0.14727783203125,0.9366455078125,1.03179931640625,0.61309814453125,-0.246734619140625,0.160999998450279,0.505680024623871,-0.0823200047016144,10.1638879776001,-8.93600368499756,107.660598754883,270617204959,"inertial","270617","204959",2017-07-23 20:49:59,302
"303",-0.16876220703125,-0.14813232421875,0.936279296875,0.8074951171875,0.3289794921875,-0.897216796875,0.157220005989075,0.507220029830933,-0.0733600035309792,10.0947866439819,-8.99046325683594,107.221557617188,270617204959,"inertial","270617","204959",2017-07-23 20:49:59,303
"304",-0.17559814453125,-0.143798828125,0.93341064453125,0.9271240234375,0.5084228515625,-1.02432250976562,0.158900007605553,0.504700005054474,-0.070980004966259,10.5328311920166,-8.75798606872559,107.476112365723,270617204959,"inertial","270617","204959",2017-07-23 20:49:59,304
"305",-0.1695556640625,-0.14617919921875,0.9315185546875,0.76263427734375,0.485992431640625,-0.61309814453125,0.156100004911423,0.506940007209778,-0.0746200010180473,10.1939878463745,-8.91844749450684,107.114959716797,270617204959,"inertial","270617","204959",2017-07-23 20:49:59,305
"306",-0.166748046875,-0.1474609375,0.94775390625,0.829925537109375,0.291595458984375,-0.10467529296875,0.154840007424355,0.50736004114151,-0.0764399990439415,9.86221981048584,-8.84373569488525,106.971542358398,270617204959,"inertial","270617","204959",2017-07-23 20:49:59,306
"307",-0.16766357421875,-0.1483154296875,0.9315185546875,0.8673095703125,0.231781005859375,-0.28411865234375,0.152740001678467,0.507080018520355,-0.0795200020074844,10.0790872573853,-9.04663944244385,106.763076782227,270617204959,"inertial","270617","204959",2017-07-23 20:49:59,307
"308",-0.1629638671875,-0.1541748046875,0.93585205078125,0.85235595703125,0.186920166015625,0.097198486328125,0.153580009937286,0.511000037193298,-0.0758799985051155,9.74926662445068,-9.35503387451172,106.728042602539,270617204959,"inertial","270617","204959",2017-07-23 20:49:59,308
"309",-0.16876220703125,-0.14996337890625,0.93682861328125,0.5084228515625,0.067291259765625,0.082244873046875,0.157360002398491,0.510860025882721,-0.0807799994945526,10.0861339569092,-9.09449863433838,107.120384216309,270617204959,"inertial","270617","204959",2017-07-23 20:49:59,309
"310",-0.175537109375,-0.1468505859375,0.93450927734375,0.471038818359375,-0.0299072265625,-0.381317138671875,0.153720006346703,0.506380021572113,-0.0767199993133545,10.5123329162598,-8.93053817749023,106.886535644531,270617204959,"inertial","270617","204959",2017-07-23 20:49:59,310
"311",-0.1728515625,-0.14752197265625,0.9376220703125,0.680389404296875,-0.097198486328125,-0.336456298828125,0.158760011196136,0.5067999958992,-0.0749000012874603,10.3210706710815,-8.94140529632568,107.393669128418,270617204959,"inertial","270617","204959",2017-07-23 20:49:59,311
"312",-0.18017578125,-0.1439208984375,0.93756103515625,0.5084228515625,0.037384033203125,-0.059814453125,0.161420002579689,0.508620023727417,-0.0777000039815903,10.7552042007446,-8.72710227966309,107.607803344727,270617204959,"inertial","270617","204959",2017-07-23 20:49:59,312
"313",-0.17828369140625,-0.14788818359375,0.9359130859375,0.478515625,-0.10467529296875,-0.2691650390625,0.156800001859665,0.508620023727417,-0.0795200020074844,10.6560258865356,-8.97934246063232,107.133750915527,270617204959,"inertial","270617","204959",2017-07-23 20:49:59,313
"314",-0.17828369140625,-0.147705078125,0.9393310546875,0.545806884765625,0.10467529296875,-0.13458251953125,0.157640010118484,0.511280000209808,-0.0798000022768974,10.61936378479,-8.93629932403564,107.135795593262,270617204959,"inertial","270617","204959",2017-07-23 20:49:59,314
"315",-0.19036865234375,-0.14215087890625,0.9315185546875,0.64300537109375,0.112152099609375,-0.46356201171875,0.155819997191429,0.506940007209778,-0.0775600001215935,11.4214515686035,-8.67646980285645,107.086051940918,270617204959,"inertial","270617","204959",2017-07-23 20:49:59,315
"316",-0.1817626953125,-0.13818359375,0.93359375,0.64300537109375,0.590667724609375,-0.04486083984375,0.157640010118484,0.506659984588623,-0.0826000049710274,10.9013023376465,-8.41936683654785,107.282783508301,270617205000,"inertial","270617","205000",2017-07-23 20:50:00,316
"317",-0.1812744140625,-0.14141845703125,0.929931640625,0.814971923828125,0.560760498046875,-0.11962890625,0.161559998989105,0.510720014572144,-0.0796599984169006,10.9081602096558,-8.64694881439209,107.554130554199,270617205000,"inertial","270617","205000",2017-07-23 20:50:00,317
"318",-0.178955078125,-0.13909912109375,0.92425537109375,0.994415283203125,0.740203857421875,-0.082244873046875,0.154840007424355,0.511839985847473,-0.0785400047898293,10.8389387130737,-8.55870151519775,106.831428527832,270617205000,"inertial","270617","205000",2017-07-23 20:50:00,318
"319",-0.18206787109375,-0.1422119140625,0.9298095703125,1.07666015625,0.88226318359375,-0.201873779296875,0.156800001859665,0.511839985847473,-0.0769999995827675,10.9547653198242,-8.69584846496582,107.032218933105,270617205000,"inertial","270617","205000",2017-07-23 20:50:00,319
"320",-0.17437744140625,-0.14404296875,0.93975830078125,1.1065673828125,0.904693603515625,-0.635528564453125,0.158619999885559,0.51366001367569,-0.0786800011992455,10.3933067321777,-8.71428203582764,107.160873413086,270617205000,"inertial","270617","205000",2017-07-23 20:50:00,320
"321",-0.173828125,-0.14434814453125,0.93695068359375,1.42059326171875,0.9869384765625,-0.73272705078125,0.161980003118515,0.508060038089752,-0.0737800002098083,10.3904514312744,-8.75822162628174,107.683349609375,270617205000,"inertial","270617","205000",2017-07-23 20:50:00,321
"322",-0.178466796875,-0.14569091796875,0.933837890625,1.02432250976562,0.9271240234375,-0.560760498046875,0.159319996833801,0.510160028934479,-0.0747600048780441,10.6930809020996,-8.86740684509277,107.343276977539,270617205000,"inertial","270617","205000",2017-07-23 20:50:00,322
"323",-0.17620849609375,-0.14556884765625,0.9344482421875,0.934600830078125,0.800018310546875,-0.52337646484375,0.160720005631447,0.505400002002716,-0.0744800046086311,10.3501062393188,-8.85439968109131,107.005584716797,270617205000,"inertial","270617","205000",2017-07-23 20:50:00,323
"324",-0.167236328125,-0.1463623046875,0.943603515625,0.859832763671875,0.8673095703125,0.10467529296875,0.156379997730255,0.511000037193298,-0.0702800005674362,9.93387603759766,-8.81688499450684,107.01554107666,270617205000,"inertial","270617","205000",2017-07-23 20:50:00,324
"325",-0.1668701171875,-0.14471435546875,0.9420166015625,0.620574951171875,0.5682373046875,0.201873779296875,0.162260010838509,0.507499992847443,-0.0751800015568733,9.9311056137085,-8.73360824584961,107.730331420898,270617205000,"inertial","270617","205000",2017-07-23 20:50:00,325
"326",-0.16796875,-0.1435546875,0.93536376953125,0.725250244140625,0.186920166015625,0.321502685546875,0.155819997191429,0.505959987640381,-0.0726599991321564,10.0650358200073,-8.72537136077881,107.117210388184,270617205000,"inertial","270617","205000",2017-07-23 20:50:00,326
"327",-0.1678466796875,-0.14190673828125,0.9420166015625,0.46356201171875,0.2691650390625,0.112152099609375,0.154559999704361,0.506940007209778,-0.0747600048780441,9.99239540100098,-8.56670570373535,106.955841064453,270617205000,"inertial","270617","205000",2017-07-23 20:50:00,327
"328",-0.177001953125,-0.13519287109375,0.933837890625,0.620574951171875,0.35888671875,0.067291259765625,0.156379997730255,0.508899986743927,-0.0702800005674362,10.6244640350342,-8.23754978179932,107.081680297852,270617205000,"inertial","270617","205000",2017-07-23 20:50:00,328
"329",-0.17974853515625,-0.13214111328125,0.93109130859375,0.635528564453125,0.25421142578125,-0.059814453125,0.162820011377335,0.507780015468597,-0.0739200040698051,10.8207836151123,-8.07751369476318,107.778480529785,270617205000,"inertial","270617","205000",2017-07-23 20:50:00,329
"330",-0.17938232421875,-0.13311767578125,0.9354248046875,0.725250244140625,0.40374755859375,-0.299072265625,0.156379997730255,0.506659984588623,-0.0781200006604195,10.749831199646,-8.09922027587891,107.152778625488,270617205000,"inertial","270617","205000",2017-07-23 20:50:00,330
"331",-0.178955078125,-0.1319580078125,0.9376220703125,0.680389404296875,0.49346923828125,0.31402587890625,0.154840007424355,0.504420042037964,-0.0800800025463104,10.7025480270386,-8.01101493835449,107.064727783203,270617205000,"inertial","270617","205000",2017-07-23 20:50:00,331
"332",-0.179931640625,-0.13330078125,0.93389892578125,0.665435791015625,0.49346923828125,0.10467529296875,0.160720005631447,0.506099998950958,-0.0722400024533272,10.7985506057739,-8.12328720092773,107.618064880371,270617205000,"inertial","270617","205000",2017-07-23 20:50:00,332
"333",-0.1732177734375,-0.13739013671875,0.9383544921875,0.755157470703125,0.538330078125,0.07476806640625,0.157080009579659,0.508620023727417,-0.0737800002098083,10.3509721755981,-8.32983303070068,107.162551879883,270617205000,"inertial","270617","205000",2017-07-23 20:50:00,333
"334",-0.1787109375,-0.1405029296875,0.93267822265625,0.73272705078125,0.366363525390625,-0.306549072265625,0.159319996833801,0.50848001241684,-0.0816200003027916,10.7288007736206,-8.56688213348389,107.397132873535,270617205000,"inertial","270617","205000",2017-07-23 20:50:00,334
"335",-0.1749267578125,-0.1402587890625,0.9393310546875,0.829925537109375,0.79254150390625,-0.261688232421875,0.15820001065731,0.509739995002747,-0.0751800015568733,10.4359436035156,-8.49253082275391,107.241958618164,270617205000,"inertial","270617","205000",2017-07-23 20:50:00,335
"336",-0.173828125,-0.14251708984375,0.9371337890625,0.8074951171875,0.560760498046875,0.007476806640625,0.159740000963211,0.506380021572113,-0.0720999985933304,10.3914813995361,-8.64715003967285,107.50813293457,270617205000,"inertial","270617","205000",2017-07-23 20:50:00,336
"337",-0.16925048828125,-0.1470947265625,0.93829345703125,0.844879150390625,0.500946044921875,0.01495361328125,0.156240001320839,0.509600043296814,-0.0737800002098083,10.1043062210083,-8.90964889526367,107.045196533203,270617205000,"inertial","270617","205000",2017-07-23 20:50:00,337
"338",-0.172119140625,-0.14678955078125,0.93511962890625,0.67291259765625,0.351409912109375,-0.052337646484375,0.155960008502007,0.504420042037964,-0.070420004427433,10.3057479858398,-8.92115306854248,107.18091583252,270617205001,"inertial","270617","205001",2017-07-23 20:50:01,338
"339",-0.17474365234375,-0.14569091796875,0.93359375,0.88226318359375,0.13458251953125,0.037384033203125,0.161280006170273,0.510160028934479,-0.0753200054168701,10.4776067733765,-8.86968898773193,107.54362487793,270617205001,"inertial","270617","205001",2017-07-23 20:50:01,339
"340",-0.182861328125,-0.1431884765625,0.929931640625,0.351409912109375,0.321502685546875,0.2392578125,0.153860002756119,0.509039998054504,-0.0771400034427643,10.9982776641846,-8.75350952148438,106.817718505859,270617205001,"inertial","270617","205001",2017-07-23 20:50:01,340
"341",-0.18975830078125,-0.14215087890625,0.93182373046875,0.83740234375,0.545806884765625,0.500946044921875,0.157920002937317,0.504700005054474,-0.0728000029921532,11.3822412490845,-8.67367172241211,107.374839782715,270617205001,"inertial","270617","205001",2017-07-23 20:50:01,341
"342",-0.18475341796875,-0.14013671875,0.92938232421875,0.844879150390625,0.7476806640625,0.530853271484375,0.158340007066727,0.508060038089752,-0.0816200003027916,11.1208190917969,-8.57473659515381,107.309967041016,270617205001,"inertial","270617","205001",2017-07-23 20:50:01,342
"343",-0.1873779296875,-0.14056396484375,0.93304443359375,1.08413696289062,0.73272705078125,0.201873779296875,0.156939998269081,0.509320020675659,-0.0742000043392181,11.2318668365479,-8.56723403930664,107.125968933105,270617205001,"inertial","270617","205001",2017-07-23 20:50:01,343
"344",-0.18310546875,-0.1361083984375,0.9354248046875,1.12152099609375,1.18881225585938,0.49346923828125,0.158900007605553,0.50330001115799,-0.0799399986863136,10.9627676010132,-8.27868843078613,107.521751403809,270617205001,"inertial","270617","205001",2017-07-23 20:50:01,344
"345",-0.177734375,-0.14227294921875,0.9351806640625,1.11404418945312,1.57760620117188,0.64300537109375,0.159740000963211,0.502740025520325,-0.0747600048780441,10.6413288116455,-8.65031719207764,107.627067565918,270617205001,"inertial","270617","205001",2017-07-23 20:50:01,345
"346",-0.166748046875,-0.14715576171875,0.94036865234375,1.4056396484375,1.5252685546875,0.216827392578125,0.154840007424355,0.505259990692139,-0.0734999999403954,9.93680286407471,-8.89393138885498,107.03800201416,270617205001,"inertial","270617","205001",2017-07-23 20:50:01,346
"347",-0.16912841796875,-0.14495849609375,0.93280029296875,1.45797729492188,1.48040771484375,-0.560760498046875,0.157080009579659,0.509739995002747,-0.071260005235672,10.1574668884277,-8.83319187164307,107.127052307129,270617205001,"inertial","270617","205001",2017-07-23 20:50:01,347
"348",-0.16827392578125,-0.15179443359375,0.9390869140625,1.27853393554688,1.2860107421875,-0.73272705078125,0.154840007424355,0.511280000209808,-0.0702800005674362,10.0314426422119,-9.18189811706543,106.848815917969,270617205001,"inertial","270617","205001",2017-07-23 20:50:01,348
"349",-0.1588134765625,-0.152099609375,0.94073486328125,1.435546875,1.24862670898438,-0.949554443359375,0.155260011553764,0.507499992847443,-0.0799399986863136,9.46163463592529,-9.18420124053955,107.010498046875,270617205001,"inertial","270617","205001",2017-07-23 20:50:01,349
"350",-0.16400146484375,-0.15472412109375,0.9339599609375,1.45797729492188,1.09909057617188,-1.1065673828125,0.151340007781982,0.507780015468597,-0.071540005505085,9.82819557189941,-9.40645217895508,106.596290588379,270617205001,"inertial","270617","205001",2017-07-23 20:50:01,350
"351",-0.1695556640625,-0.1546630859375,0.93011474609375,1.14395141601562,0.777587890625,-0.2392578125,0.153860002756119,0.509180009365082,-0.0718199983239174,10.1943311691284,-9.4409818649292,106.813354492188,270617205001,"inertial","270617","205001",2017-07-23 20:50:01,351
"352",-0.16741943359375,-0.15692138671875,0.93389892578125,0.82244873046875,0.6878662109375,0.28411865234375,0.154559999704361,0.514779984951019,-0.0757400020956993,10.0257816314697,-9.53820896148682,106.712112426758,270617205001,"inertial","270617","205001",2017-07-23 20:50:01,352
"353",-0.164306640625,-0.1553955078125,0.939453125,0.76263427734375,0.88226318359375,0.201873779296875,0.155960008502007,0.511560022830963,-0.0795200020074844,9.79006481170654,-9.39228630065918,106.954963684082,270617205001,"inertial","270617","205001",2017-07-23 20:50:01,353
"354",-0.16253662109375,-0.14984130859375,0.933349609375,0.800018310546875,0.61309814453125,0.34393310546875,0.158760011196136,0.512400031089783,-0.0749000012874603,9.75613498687744,-9.12052345275879,107.214866638184,270617205001,"inertial","270617","205001",2017-07-23 20:50:01,354
"355",-0.163330078125,-0.15350341796875,0.93853759765625,0.485992431640625,0.261688232421875,-0.28411865234375,0.158340007066727,0.506940007209778,-0.0802199989557266,9.74514389038086,-9.28882217407227,107.345916748047,270617205002,"inertial","270617","205002",2017-07-23 20:50:02,355
"356",-0.1644287109375,-0.15093994140625,0.9384765625,0.777587890625,0.10467529296875,-0.605621337890625,0.157780006527901,0.513100028038025,-0.0768600031733513,9.81418800354004,-9.13692283630371,107.092842102051,270617205002,"inertial","270617","205002",2017-07-23 20:50:02,356
"357",-0.16754150390625,-0.1468505859375,0.93463134765625,0.7177734375,0,-0.31402587890625,0.155819997191429,0.509739995002747,-0.0761599987745285,10.0422220230103,-8.92938995361328,106.997619628906,270617205002,"inertial","270617","205002",2017-07-23 20:50:02,357
"358",-0.17596435546875,-0.15093994140625,0.9364013671875,0.500946044921875,0.201873779296875,0.418701171875,0.156100004911423,0.505540013313293,-0.0772799998521805,10.5100688934326,-9.15682888031006,107.159576416016,270617205002,"inertial","270617","205002",2017-07-23 20:50:02,358
"359",-0.172607421875,-0.14288330078125,0.93365478515625,0.40374755859375,0.22430419921875,0.538330078125,0.156939998269081,0.51366001367569,-0.0672000050544739,10.3562564849854,-8.70084190368652,106.989631652832,270617205002,"inertial","270617","205002",2017-07-23 20:50:02,359
"360",-0.16937255859375,-0.14617919921875,0.9356689453125,0.456085205078125,0.231781005859375,0.485992431640625,0.154980003833771,0.51366001367569,-0.0711200013756752,10.1400346755981,-8.87951946258545,106.789459228516,270617205002,"inertial","270617","205002",2017-07-23 20:50:02,360
"361",-0.1683349609375,-0.144287109375,0.93896484375,0.620574951171875,0.635528564453125,0.11962890625,0.155960008502007,0.509460031986237,-0.0744800046086311,10.0483531951904,-8.73608684539795,107.020820617676,270617205002,"inertial","270617","205002",2017-07-23 20:50:02,361
"362",-0.168212890625,-0.147216796875,0.93292236328125,0.680389404296875,0.157012939453125,-0.35888671875,0.152600005269051,0.508060038089752,-0.0749000012874603,10.0986938476562,-8.96742916107178,106.718070983887,270617205002,"inertial","270617","205002",2017-07-23 20:50:02,362
"363",-0.1728515625,-0.145263671875,0.9390869140625,0.6280517578125,0.276641845703125,-0.52337646484375,0.160160005092621,0.5067999958992,-0.0763000026345253,10.3093881607056,-8.79316806793213,107.537689208984,270617205002,"inertial","270617","205002",2017-07-23 20:50:02,363
"364",-0.17535400390625,-0.14501953125,0.93096923828125,0.35888671875,0.231781005859375,-0.538330078125,0.161700010299683,0.510160028934479,-0.0771400034427643,10.5428056716919,-8.85395812988281,107.586502075195,270617205002,"inertial","270617","205002",2017-07-23 20:50:02,364
"365",-0.17498779296875,-0.143310546875,0.9388427734375,0.545806884765625,0.127105712890625,-0.3289794921875,0.156939998269081,0.511839985847473,-0.0740600004792213,10.4397974014282,-8.67897319793701,107.046546936035,270617205002,"inertial","270617","205002",2017-07-23 20:50:02,365
"366",-0.1734619140625,-0.141357421875,0.933349609375,0.710296630859375,0.411224365234375,-0.01495361328125,0.156800001859665,0.506940007209778,-0.0763000026345253,10.4121370315552,-8.61209678649902,107.187194824219,270617205002,"inertial","270617","205002",2017-07-23 20:50:02,366
"367",-0.16961669921875,-0.144775390625,0.93927001953125,0.85235595703125,0.411224365234375,-0.0299072265625,0.156939998269081,0.505959987640381,-0.0774200037121773,10.1193656921387,-8.76238822937012,107.232978820801,270617205002,"inertial","270617","205002",2017-07-23 20:50:02,367
"368",-0.1688232421875,-0.14617919921875,0.93890380859375,1.03179931640625,0.515899658203125,-0.142059326171875,0.163660004734993,0.504980027675629,-0.0729399994015694,10.0745258331299,-8.84941101074219,107.957099914551,270617205002,"inertial","270617","205002",2017-07-23 20:50:02,368
"369",-0.1693115234375,-0.14373779296875,0.93701171875,0.755157470703125,0.575714111328125,-0.0897216796875,0.163800001144409,0.510160028934479,-0.0760200023651123,10.1264724731445,-8.72120094299316,107.800559997559,270617205002,"inertial","270617","205002",2017-07-23 20:50:02,369
"370",-0.1719970703125,-0.15130615234375,0.9342041015625,1.14395141601562,0.276641845703125,-0.46356201171875,0.159460008144379,0.508620023727417,-0.07014000415802,10.3006496429443,-9.19988632202148,107.40699005127,270617205002,"inertial","270617","205002",2017-07-23 20:50:02,370
"371",-0.17669677734375,-0.1500244140625,0.93524169921875,0.88226318359375,0.49346923828125,-0.35888671875,0.160160005092621,0.509739995002747,-0.0737800002098083,10.5668859481812,-9.11331748962402,107.442687988281,270617205002,"inertial","270617","205002",2017-07-23 20:50:02,371
"372",-0.176513671875,-0.1427001953125,0.93560791015625,0.59814453125,0.441131591796875,0.22430419921875,0.159180000424385,0.51366001367569,-0.0771400034427643,10.5645818710327,-8.67199802398682,107.414619445801,270617205002,"inertial","270617","205002",2017-07-23 20:50:02,372
"373",-0.17462158203125,-0.14813232421875,0.9422607421875,0.650482177734375,0.590667724609375,0.4486083984375,0.160860002040863,0.514500021934509,-0.0730800032615662,10.3744497299194,-8.93431568145752,107.362014770508,270617205002,"inertial","270617","205002",2017-07-23 20:50:02,373
"374",-0.17279052734375,-0.145751953125,0.93658447265625,0.82244873046875,0.800018310546875,0.777587890625,0.163100004196167,0.5067999958992,-0.0729399994015694,10.331337928772,-8.84545993804932,107.839378356934,270617205002,"inertial","270617","205002",2017-07-23 20:50:02,374
"375",-0.16339111328125,-0.1458740234375,0.934814453125,0.725250244140625,0.665435791015625,0.426177978515625,0.162400007247925,0.513520002365112,-0.0702800005674362,9.79803085327148,-8.86924743652344,107.549491882324,270617205003,"inertial","270617","205003",2017-07-23 20:50:03,375
"376",-0.16131591796875,-0.15289306640625,0.94049072265625,0.800018310546875,0.49346923828125,-0.052337646484375,0.163240000605583,0.512120008468628,-0.0673400014638901,9.60909271240234,-9.23364448547363,107.67985534668,270617205003,"inertial","270617","205003",2017-07-23 20:50:03,376
"377",-0.14898681640625,-0.15570068359375,0.9302978515625,0.52337646484375,0.411224365234375,0.19439697265625,0.162260010838509,0.513520002365112,-0.0730800032615662,8.97586250305176,-9.50133037567139,107.535285949707,270617205003,"inertial","270617","205003",2017-07-23 20:50:03,377
"378",-0.161865234375,-0.1531982421875,0.94061279296875,0.276641845703125,-0.40374755859375,-0.059814453125,0.159740000963211,0.51282000541687,-0.0718199983239174,9.63951778411865,-9.25057697296143,107.301460266113,270617205003,"inertial","270617","205003",2017-07-23 20:50:03,378
"379",-0.1640625,-0.1494140625,0.94122314453125,0.082244873046875,-0.381317138671875,0.007476806640625,0.159600004553795,0.508760035037994,-0.071260005235672,9.76784801483154,-9.02012825012207,107.416847229004,270617205003,"inertial","270617","205003",2017-07-23 20:50:03,379
"380",-0.1719970703125,-0.148681640625,0.93463134765625,0.381317138671875,-0.530853271484375,-0.179443359375,0.154140010476112,0.506940007209778,-0.0778400003910065,10.3005867004395,-9.03890228271484,106.912399291992,270617205003,"inertial","270617","205003",2017-07-23 20:50:03,380
"381",-0.17669677734375,-0.14776611328125,0.93408203125,0.261688232421875,-0.530853271484375,0.179443359375,0.157499998807907,0.510439991950989,-0.0756000056862831,10.5832738876343,-8.98935127258301,107.147994995117,270617205003,"inertial","270617","205003",2017-07-23 20:50:03,381
"382",-0.181884765625,-0.1434326171875,0.9296875,0,-0.13458251953125,1.00936889648438,0.15820001065731,0.507080018520355,-0.0778400003910065,10.9432802200317,-8.77046966552734,107.327003479004,270617205003,"inertial","270617","205003",2017-07-23 20:50:03,382
"383",-0.180419921875,-0.1441650390625,0.938720703125,-0.01495361328125,-0.22430419921875,1.15890502929688,0.158900007605553,0.50652003288269,-0.0771400034427643,10.7563323974609,-8.73104476928711,107.417121887207,270617205003,"inertial","270617","205003",2017-07-23 20:50:03,383
"384",-0.187744140625,-0.13946533203125,0.94189453125,0.31402587890625,0.01495361328125,0.635528564453125,0.157360002398491,0.509880006313324,-0.0734999999403954,11.1542854309082,-8.42252826690674,107.151359558105,270617205003,"inertial","270617","205003",2017-07-23 20:50:03,384
"385",-0.2039794921875,-0.1334228515625,0.931396484375,0.665435791015625,0.112152099609375,0.097198486328125,0.159040004014969,0.506940007209778,-0.0779800042510033,12.2319202423096,-8.15217876434326,107.41796875,270617205003,"inertial","270617","205003",2017-07-23 20:50:03,385
"386",-0.20489501953125,-0.12579345703125,0.933837890625,1.02432250976562,0.680389404296875,1.3458251953125,0.159460008144379,0.505120038986206,-0.0700000002980232,12.2678623199463,-7.67189693450928,107.520248413086,270617205003,"inertial","270617","205003",2017-07-23 20:50:03,386
"387",-0.20343017578125,-0.1239013671875,0.93072509765625,1.07666015625,1.15142822265625,2.96829223632812,0.164499998092651,0.506240010261536,-0.0795200020074844,12.2247762680054,-7.58282947540283,108.00129699707,270617205003,"inertial","270617","205003",2017-07-23 20:50:03,387
"388",-0.19000244140625,-0.133544921875,0.93212890625,1.15142822265625,2.13088989257812,4.19448852539062,0.166320011019707,0.510720014572144,-0.0740600004792213,11.4077854156494,-8.15321159362793,108.038246154785,270617205003,"inertial","270617","205003",2017-07-23 20:50:03,388
"389",-0.1727294921875,-0.13677978515625,0.9346923828125,0.88226318359375,2.19818115234375,4.44122314453125,0.161559998989105,0.507780015468597,-0.0782600045204163,10.3621063232422,-8.32538223266602,107.649475097656,270617205003,"inertial","270617","205003",2017-07-23 20:50:03,389
"390",-0.147705078125,-0.15484619140625,0.94085693359375,1.1065673828125,1.79443359375,2.4224853515625,0.167439997196198,0.508620023727417,-0.0798000022768974,8.80547523498535,-9.34595489501953,108.221778869629,270617205003,"inertial","270617","205003",2017-07-23 20:50:03,390
"391",-0.1351318359375,-0.15765380859375,0.9364013671875,1.30844116210938,1.36077880859375,0.112152099609375,0.161280006170273,0.505680024623871,-0.0725200027227402,8.09920692443848,-9.55677032470703,107.689399719238,270617205003,"inertial","270617","205003",2017-07-23 20:50:03,391
"392",-0.1473388671875,-0.1556396484375,0.93988037109375,1.05422973632812,0.58319091796875,-2.37762451171875,0.162400007247925,0.507220029830933,-0.0754600018262863,8.7915563583374,-9.40257835388184,107.753852844238,270617205003,"inertial","270617","205003",2017-07-23 20:50:03,392
"393",-0.11895751953125,-0.1806640625,0.93646240234375,1.41311645507812,1.11404418945312,-4.44122314453125,0.165480002760887,0.510580003261566,-0.0732199996709824,7.10971021652222,-10.9194574356079,107.957611083984,270617205003,"inertial","270617","205003",2017-07-23 20:50:03,393
"394",-0.1944580078125,-0.133544921875,0.94970703125,0.635528564453125,1.95892333984375,-1.83181762695312,0.163800001144409,0.509880006313324,-0.0694399997591972,11.4619598388672,-8.00427722930908,107.809722900391,270617205004,"inertial","270617","205004",2017-07-23 20:50:04,394
"395",-0.1898193359375,-0.15728759765625,0.92266845703125,0.067291259765625,0,-0.88226318359375,0.165480002760887,0.511700034141541,-0.070420004427433,11.2202959060669,-7.07877922058105,107.462646484375,270617205004,"inertial","270617","205004",2017-07-23 20:50:04,395
"396",-0.18194580078125,-0.123046875,0.95562744140625,0.82244873046875,-0.231781005859375,0.538330078125,0.159879997372627,0.514360010623932,-0.0659400001168251,10.6935367584229,-7.33705186843872,107.266960144043,270617205004,"inertial","270617","205004",2017-07-23 20:50:04,396
"397",-0.16741943359375,-0.1556396484375,0.9385986328125,0.785064697265625,0.112152099609375,0.79254150390625,0.164220005273819,0.508620023727417,-0.0728000029921532,9.9800968170166,-9.41518878936768,107.893898010254,270617205004,"inertial","270617","205004",2017-07-23 20:50:04,397
"398",-0.16900634765625,-0.16741943359375,0.92498779296875,0.650482177734375,0.291595458984375,-0.01495361328125,0.164780005812645,0.509460031986237,-0.0711200013756752,10.1923608779907,-10.2592601776123,107.923309326172,270617205004,"inertial","270617","205004",2017-07-23 20:50:04,398
"399",-0.17913818359375,-0.1568603515625,0.92431640625,0.994415283203125,0.515899658203125,-1.31591796875,0.162680000066757,0.509039998054504,-0.0725200027227402,10.6793460845947,-8.44612121582031,107.441421508789,270617205004,"inertial","270617","205004",2017-07-23 20:50:04,399
"400",-0.17352294921875,-0.1409912109375,0.9398193359375,0.3887939453125,0.889739990234375,-0.919647216796875,0.161980003118515,0.50848001241684,-0.0812000036239624,10.3477096557617,-8.53185749053955,107.669654846191,270617205004,"inertial","270617","205004",2017-07-23 20:50:04,400
"401",-0.2698974609375,-0.12872314453125,0.92254638671875,0.994415283203125,-0.478515625,-0.336456298828125,0.161280006170273,0.511420011520386,-0.0769999995827675,16.1589527130127,-7.94321250915527,107.503044128418,270617205004,"inertial","270617","205004",2017-07-23 20:50:04,401
"402",-0.2489013671875,-0.14959716796875,0.90863037109375,1.54769897460938,1.5850830078125,-1.30844116210938,0.168140009045601,0.509180009365082,-0.0730800032615662,15.1251382827759,-9.34932041168213,108.274116516113,270617205004,"inertial","270617","205004",2017-07-23 20:50:04,402
"403",-0.142822265625,-0.1678466796875,0.9248046875,0.95703125,-0.231781005859375,-0.0897216796875,0.164640009403229,0.50848001241684,-0.0718199983239174,8.64015197753906,-10.2868766784668,107.941360473633,270617205004,"inertial","270617","205004",2017-07-23 20:50:04,403
"404",-0.1619873046875,-0.15496826171875,0.9376220703125,0.25421142578125,0.485992431640625,-0.276641845703125,0.156800001859665,0.506940007209778,-0.0666400045156479,9.67318916320801,-9.3848876953125,107.187194824219,270617205004,"inertial","270617","205004",2017-07-23 20:50:04,404
"405",-0.162841796875,-0.1505126953125,0.9332275390625,0.441131591796875,1.27105712890625,0.52337646484375,0.164220005273819,0.509739995002747,-0.0740600004792213,9.77424049377441,-9.16187572479248,107.857086181641,270617205004,"inertial","270617","205004",2017-07-23 20:50:04,405
"406",-0.16339111328125,-0.15423583984375,0.940673828125,0.73272705078125,1.30844116210938,0.605621337890625,0.165340006351471,0.510020017623901,-0.0680399984121323,9.72638130187988,-9.31154251098633,107.96183013916,270617205004,"inertial","270617","205004",2017-07-23 20:50:04,406
"407",-0.1781005859375,-0.146240234375,0.9329833984375,0.814971923828125,-0.231781005859375,-0.52337646484375,0.164640009403229,0.511560022830963,-0.0749000012874603,10.6800270080566,-8.90832805633545,107.840202331543,270617205004,"inertial","270617","205004",2017-07-23 20:50:04,407
"408",-0.17742919921875,-0.144775390625,0.92401123046875,0.635528564453125,0.01495361328125,-1.06918334960938,0.157220005989075,0.509460031986237,-0.070980004966259,10.741717338562,-8.90478706359863,107.150291442871,270617205004,"inertial","270617","205004",2017-07-23 20:50:04,408
"409",-0.17132568359375,-0.14312744140625,0.93426513671875,0.70281982421875,0.216827392578125,-2.01126098632812,0.160999998450279,0.508899986743927,-0.0772799998521805,10.2741832733154,-8.70987415313721,107.555740356445,270617205004,"inertial","270617","205004",2017-07-23 20:50:04,409
"410",-0.176025390625,-0.13037109375,0.9365234375,0.755157470703125,0.889739990234375,-1.78695678710938,0.154840007424355,0.511560022830963,-0.0795200020074844,10.5455284118652,-7.92507219314575,106.840118408203,270617205004,"inertial","270617","205004",2017-07-23 20:50:04,410
"411",-0.22314453125,-0.11767578125,0.92608642578125,1.18881225585938,1.4056396484375,0.46356201171875,0.159319996833801,0.510860025882721,-0.0723799988627434,13.4432973861694,-7.2416410446167,107.320938110352,270617205004,"inertial","270617","205004",2017-07-23 20:50:04,411
"412",-0.19696044921875,-0.11279296875,0.9361572265625,0.9271240234375,2.01873779296875,1.36825561523438,0.156100004911423,0.510020017623901,-0.0736400038003922,11.7984046936035,-6.8701696395874,107.017593383789,270617205004,"inertial","270617","205004",2017-07-23 20:50:04,412
"413",-0.13739013671875,-0.179931640625,0.91583251953125,2.19070434570312,2.82623291015625,2.37762451171875,0.161420002579689,0.506940007209778,-0.0676200017333031,8.373948097229,-11.1152067184448,107.662528991699,270617205004,"inertial","270617","205004",2017-07-23 20:50:04,413
"414",-0.1265869140625,-0.13189697265625,0.9481201171875,1.016845703125,3.81317138671875,1.36825561523438,0.164499998092651,0.509460031986237,-0.0716800019145012,7.53309154510498,-7.91982746124268,107.894798278809,270617205005,"inertial","270617","205005",2017-07-23 20:50:05,414
"415",-0.18914794921875,-0.15032958984375,0.91552734375,0.844879150390625,1.15142822265625,1.12899780273438,0.160720005631447,0.509320020675659,-0.0722400024533272,11.5229759216309,-9.32475757598877,107.51350402832,270617205005,"inertial","270617","205005",2017-07-23 20:50:05,415
"416",-0.13909912109375,-0.13018798828125,0.96197509765625,0.7177734375,1.44302368164062,3.1402587890625,0.163660004734993,0.509739995002747,-0.0705600008368492,8.1544713973999,-7.70724391937256,107.80004119873,270617205005,"inertial","270617","205005",2017-07-23 20:50:05,416
"417",-0.11627197265625,-0.13330078125,0.9547119140625,0.097198486328125,-0.216827392578125,-1.83929443359375,0.165059998631477,0.505680024623871,-0.0740600004792213,6.87764644622803,-7.94848537445068,108.077301025391,270617205005,"inertial","270617","205005",2017-07-23 20:50:05,417
"418",-0.1822509765625,-0.130126953125,0.9500732421875,0.07476806640625,-1.89163208007812,-1.92901611328125,0.163800001144409,0.504700005054474,-0.0726599991321564,10.7609519958496,-7.79900026321411,107.980796813965,270617205005,"inertial","270617","205005",2017-07-23 20:50:05,418
"419",-0.17724609375,-0.1502685546875,0.9288330078125,0.6878662109375,-1.06918334960938,-2.1234130859375,0.163520008325577,0.503019988536835,-0.0772799998521805,10.6682081222534,-9.18980693817139,108.008125305176,270617205005,"inertial","270617","205005",2017-07-23 20:50:05,419
"420",-0.17413330078125,-0.1641845703125,0.92913818359375,0.8673095703125,-1.09161376953125,-4.94964599609375,0.157780006527901,0.509739995002747,-0.0676200017333031,10.4565391540527,-10.0210762023926,107.198883056641,270617205005,"inertial","270617","205005",2017-07-23 20:50:05,420
"421",-0.170166015625,-0.15069580078125,0.936767578125,0.7476806640625,-1.256103515625,-5.45806884765625,0.153439998626709,0.510720014572144,-0.0734999999403954,10.1677045822144,-9.13875389099121,106.722297668457,270617205005,"inertial","270617","205005",2017-07-23 20:50:05,421
"422",-0.20648193359375,-0.1395263671875,0.93212890625,0.874786376953125,-0.37384033203125,-4.35897827148438,0.152740001678467,0.509739995002747,-0.0792400017380714,12.3569011688232,-8.51315307617188,106.680473327637,270617205005,"inertial","270617","205005",2017-07-23 20:50:05,422
"423",-0.2156982421875,-0.13616943359375,0.92755126953125,1.08413696289062,0.396270751953125,-2.54959106445312,0.152040004730225,0.510580003261566,-0.0761599987745285,12.957106590271,-8.35166645050049,106.582427978516,270617205005,"inertial","270617","205005",2017-07-23 20:50:05,423
"424",-0.23333740234375,-0.13336181640625,0.91845703125,1.36825561523438,0.83740234375,-0.3289794921875,0.153999999165535,0.50652003288269,-0.0820400044322014,14.1126375198364,-8.26172351837158,106.911125183105,270617205005,"inertial","270617","205005",2017-07-23 20:50:05,424
"425",-0.23675537109375,-0.13525390625,0.924072265625,1.31591796875,1.54022216796875,1.24114990234375,0.149800002574921,0.507220029830933,-0.0732199996709824,14.2252368927002,-8.3270959854126,106.453735351562,270617205005,"inertial","270617","205005",2017-07-23 20:50:05,425
"426",-0.1788330078125,-0.16253662109375,0.9346923828125,1.57760620117188,2.66921997070312,3.37203979492188,0.153439998626709,0.506659984588623,-0.0729399994015694,10.6749629974365,-9.86470127105713,106.848731994629,270617205005,"inertial","270617","205005",2017-07-23 20:50:05,426
"427",-0.1820068359375,-0.15887451171875,0.9268798828125,1.495361328125,2.20565795898438,3.40194702148438,0.152879998087883,0.508340001106262,-0.0835800021886826,10.9537343978882,-9.72642707824707,106.738319396973,270617205005,"inertial","270617","205005",2017-07-23 20:50:05,427
