"","gyro_y","accel_y","gyro_z","mag_x","gyro_x","accel_x","yaw","pitch","roll","accel_z","mag_z","mag_y","sensor","sequenceTime"
"1",-0.231781005859375,-0.0413818359375,-1.51779174804688,0.124180004000664,0.127105712890625,-0.001220703125,114.034614562988,0.0706257522106171,-2.39491152763367,0.98944091796875,-0.47502002120018,0.278459995985031,"inertial",1
"2",-0.2093505859375,-0.0311279296875,-1.60003662109375,0.126980006694794,0.22430419921875,-0.0059814453125,114.546028137207,0.346770405769348,-1.80494201183319,0.98779296875,-0.46984001994133,0.278040021657944,"inertial",2
"3",0.082244873046875,-0.04486083984375,-1.08413696289062,0.125720009207726,-0.01495361328125,-0.0091552734375,114.105361938477,0.534599304199219,-2.62052607536316,0.98016357421875,-0.471799999475479,0.28098002076149,"inertial",3
"4",-0.13458251953125,-0.04180908203125,-1.2860107421875,0.129360005259514,0.01495361328125,-0.002685546875,114.559135437012,0.156055793166161,-2.4302396774292,0.985107421875,-0.465920001268387,0.283080011606216,"inertial",4
"5",-0.16448974609375,-0.0323486328125,-1.17385864257812,0.123340003192425,-0.082244873046875,-0.00299072265625,113.93302154541,0.173251584172249,-1.87428569793701,0.988525390625,-0.471240013837814,0.277900010347366,"inertial",5
"6",-0.3887939453125,-0.03271484375,-1.136474609375,0.122640006244183,-0.142059326171875,0.0029296875,113.48609161377,-0.170122995972633,-1.90006065368652,0.98614501953125,-0.469280004501343,0.282240003347397,"inertial",6
"7",-0.500946044921875,-0.03546142578125,-0.7476806640625,0.124040000140667,0.142059326171875,0.00177001953125,113.914581298828,-0.102185525000095,-2.04767227172852,0.9918212890625,-0.467600017786026,0.27972000837326,"inertial",7
"8",-0.904693603515625,-0.028076171875,-0.9869384765625,0.123759999871254,0.2691650390625,0.01519775390625,114.005325317383,-0.877096056938171,-1.620680809021,0.9923095703125,-0.476560026407242,0.277900010347366,"inertial",8
"9",-1.375732421875,-0.03973388671875,-1.12899780273438,0.125720009207726,0.4486083984375,0.000732421875,114.190788269043,-0.0425513125956059,-2.3090341091156,0.98541259765625,-0.46984001994133,0.279860019683838,"inertial",9
"10",-1.69723510742188,-0.0413818359375,-1.07666015625,0.124460004270077,0.366363525390625,-0.00482177734375,113.681259155273,0.280038803815842,-2.40409541130066,0.98565673828125,-0.473620027303696,0.283780008554459,"inertial",10
"11",-1.256103515625,-0.03338623046875,-1.136474609375,0.125300005078316,-0.037384033203125,-0.0118408203125,113.750442504883,0.684024214744568,-1.92912232875824,0.9912109375,-0.467739999294281,0.284759998321533,"inertial",11
"12",-1.51779174804688,-0.037841796875,-0.95703125,0.1266999989748,0.276641845703125,-0.01336669921875,114.122413635254,0.773368418216705,-2.19011116027832,0.989501953125,-0.469700008630753,0.286860018968582,"inertial",12
"13",-1.45797729492188,-0.04541015625,-1.11404418945312,0.121240004897118,0.426177978515625,-0.0225830078125,113.215713500977,1.30958318710327,-2.63471102714539,0.98681640625,-0.471100002527237,0.282660007476807,"inertial",13
"14",-1.00936889648438,-0.03875732421875,-1.2261962890625,0.118020005524158,-0.07476806640625,-0.02349853515625,112.875946044922,1.36119711399078,-2.24608898162842,0.9881591796875,-0.466340005397797,0.27972000837326,"inertial",14
"15",-0.889739990234375,-0.0450439453125,-1.27853393554688,0.11914000660181,-0.0897216796875,-0.02777099609375,112.845062255859,1.60843181610107,-2.61042952537537,0.98797607421875,-0.469140022993088,0.282800018787384,"inertial",15
"16",-0.740203857421875,-0.03643798828125,-0.79254150390625,0.11914000660181,0.179443359375,-0.033935546875,112.574142456055,1.96228897571564,-2.10829019546509,0.98980712890625,-0.472920000553131,0.286579996347427,"inertial",16
"17",-0.2691650390625,-0.04437255859375,-1.09909057617188,0.124600000679493,0.067291259765625,-0.029052734375,113.467895507812,1.68153727054596,-2.56982946395874,0.9886474609375,-0.468440026044846,0.287000000476837,"inertial",17
"18",0.01495361328125,-0.04254150390625,-1.14395141601562,0.121240004897118,-0.07476806640625,-0.0247802734375,113.215713500977,1.44015836715698,-2.47367930412292,0.9847412109375,-0.468860000371933,0.282660007476807,"inertial",18
"19",0.231781005859375,-0.03997802734375,-0.904693603515625,0.123479999601841,0.01495361328125,-0.0233154296875,113.442924499512,1.35336434841156,-2.32162618637085,0.986083984375,-0.471520006656647,0.284759998321533,"inertial",19
"20",0.306549072265625,-0.0380859375,-0.814971923828125,0.125440001487732,-0.201873779296875,-0.01483154296875,113.878387451172,0.857361793518066,-2.20232701301575,0.9903564453125,-0.468020021915436,0.283360004425049,"inertial",20
"21",0.2392578125,-0.035400390625,-1.06918334960938,0.121660001575947,-0.01495361328125,-0.0130615234375,113.21565246582,0.755131363868713,-2.04717183113098,0.9903564453125,-0.466060012578964,0.283639997243881,"inertial",21
"22",0.246734619140625,-0.041259765625,-1.016845703125,0.115080006420612,-0.022430419921875,-0.00860595703125,112.292404174805,0.498055189847946,-2.38859105110168,0.9891357421875,-0.464800000190735,0.280699998140335,"inertial",22
"23",-0.11962890625,-0.0384521484375,-1.20376586914062,0.122080005705357,0.082244873046875,-0.00482177734375,113.380043029785,0.279916703701019,-2.23283004760742,0.9862060546875,-0.467600017786026,0.282380014657974,"inertial",23
"24",-0.299072265625,-0.03753662109375,-1.24114990234375,0.122920006513596,-0.201873779296875,-0.0106201171875,113.45093536377,0.615463614463806,-2.17595219612122,0.9879150390625,-0.468300014734268,0.283360004425049,"inertial",24
"25",-0.291595458984375,-0.04339599609375,-1.57012939453125,0.119840003550053,1.8841552734375,-0.01416015625,112.89427947998,0.821356773376465,-2.51815843582153,0.98675537109375,-0.465360015630722,0.283780008554459,"inertial",25
"26",-0.299072265625,-0.04058837890625,-1.18881225585938,0.126840010285378,0.01495361328125,-0.0146484375,114.009521484375,0.850776076316833,-2.3581976890564,0.985595703125,-0.47026002407074,0.284759998321533,"inertial",26
"27",-0.246734619140625,-0.03265380859375,-1.39068603515625,0.126560002565384,-0.112152099609375,-0.0123291015625,114.078010559082,0.71674245595932,-1.89874947071075,0.9849853515625,-0.467460006475449,0.283219993114471,"inertial",27
"28",-0.650482177734375,-0.04522705078125,-0.889739990234375,0.118020005524158,0.485992431640625,-0.0203857421875,112.432334899902,1.18338072299957,-2.62669801712036,0.98583984375,-0.472080022096634,0.285879999399185,"inertial",28
"29",-0.441131591796875,-0.03314208984375,-1.15142822265625,0.117320001125336,0.171966552734375,-0.01654052734375,112.431221008301,0.95074725151062,-1.90552890300751,0.99615478515625,-0.473480015993118,0.284200012683868,"inertial",29
"30",-0.35888671875,-0.04888916015625,-1.09909057617188,0.12474000453949,0.059814453125,-0.02386474609375,113.801750183105,1.40023100376129,-2.87027549743652,0.97509765625,-0.471100002527237,0.282800018787384,"inertial",30
"31",-0.411224365234375,-0.0484619140625,-1.23367309570312,0.11956000328064,0.31402587890625,-0.01629638671875,112.458206176758,0.94959157705307,-2.82528257369995,0.98199462890625,-0.46984001994133,0.289240002632141,"inertial",31
"32",-0.0897216796875,-0.04095458984375,-1.11404418945312,0.120120003819466,-0.186920166015625,-0.01947021484375,113.292205810547,1.12718915939331,-2.37196755409241,0.98870849609375,-0.471940010786057,0.279020011425018,"inertial",32
"33",-0.067291259765625,-0.03826904296875,-1.39816284179688,0.124180004000664,0.052337646484375,-0.01416015625,113.468818664551,0.820216119289398,-2.21740984916687,0.98834228515625,-0.480900019407272,0.286020010709763,"inertial",33
"34",-0.2093505859375,-0.0408935546875,-1.06918334960938,0.124880000948906,0.142059326171875,-0.01788330078125,113.648559570312,1.03905463218689,-2.37693738937378,0.98516845703125,-0.472640007734299,0.285180002450943,"inertial",34
"35",-0.052337646484375,-0.03778076171875,-1.33834838867188,0.116900004446507,-0.16448974609375,-0.01507568359375,112.438545227051,0.871590077877045,-2.18496632575989,0.990234375,-0.470820009708405,0.283080011606216,"inertial",35
"36",-0.19439697265625,-0.03924560546875,-1.00936889648438,0.117600001394749,-0.059814453125,-0.0185546875,112.019859313965,1.07374513149261,-2.27197360992432,0.98919677734375,-0.470820009708405,0.290780007839203,"inertial",36
"37",-0.396270751953125,-0.03863525390625,-1.03927612304688,0.118580006062984,0.07476806640625,-0.0145263671875,112.478614807129,0.839446902275085,-2.23337173461914,0.99066162109375,-0.46984001994133,0.286579996347427,"inertial",37
"38",-0.3289794921875,-0.0389404296875,-0.949554443359375,0.11676000058651,0.01495361328125,-0.0167236328125,112.216239929199,0.971046268939972,-2.26185321807861,0.98590087890625,-0.47460001707077,0.285879999399185,"inertial",38
"39",-0.112152099609375,-0.04296875,-0.9271240234375,0.121240004897118,-1.90658569335938,-0.0252685546875,112.831161499023,1.46604824066162,-2.49432229995728,0.98638916015625,-0.46984001994133,0.287980020046234,"inertial",39
"40",-0.186920166015625,-0.04205322265625,-1.06918334960938,0.123759999871254,0.059814453125,-0.02581787109375,113.346992492676,1.50185859203339,-2.44759440422058,0.98382568359375,-0.473340004682541,0.286720007658005,"inertial",40
"41",0,-0.04498291015625,-0.889739990234375,0.122920006513596,-0.11962890625,-0.02337646484375,113.266288757324,1.35778367519379,-2.61415457725525,0.9852294921875,-0.477260023355484,0.285879999399185,"inertial",41
"42",-0.0897216796875,-0.039306640625,-1.0467529296875,0.116340003907681,0.022430419921875,-0.0191650390625,112.26220703125,1.11001145839691,-2.27746844291687,0.98834228515625,-0.479080021381378,0.284200012683868,"inertial",42
"43",0.3289794921875,-0.0406494140625,-0.979461669921875,0.123340003192425,-0.0299072265625,-0.0126953125,113.605522155762,0.734038472175598,-2.35112309455872,0.99005126953125,-0.472360014915466,0.282240003347397,"inertial",43
"44",0.082244873046875,-0.0361328125,-0.904693603515625,0.120960004627705,-0.6878662109375,-0.022705078125,112.823669433594,1.30173742771149,-2.07239055633545,0.99853515625,-0.473060011863708,0.287420004606247,"inertial",44
"45",-0.426177978515625,-0.03179931640625,-0.889739990234375,0.124600000679493,0.01495361328125,-0.00439453125,113.862007141113,0.254844665527344,-1.84441494941711,0.98748779296875,-0.477820008993149,0.281680017709732,"inertial",45
"46",-0.381317138671875,-0.038330078125,-0.82244873046875,0.118300005793571,0,-0.01849365234375,112.720596313477,1.07395708560944,-2.22671246528625,0.98577880859375,-0.484260022640228,0.282519996166229,"inertial",46
"47",0.052337646484375,-0.0411376953125,-1.12152099609375,0.119699999690056,-0.31402587890625,-0.01910400390625,112.629783630371,1.10116803646088,-2.37217497825623,0.9930419921875,-0.475720018148422,0.287140011787415,"inertial",47
"48",0.157012939453125,-0.02777099609375,-0.979461669921875,0.121240004897118,-0.46356201171875,-0.01483154296875,112.891075134277,0.872485101222992,-1.63401329517365,0.9735107421875,-0.469980001449585,0.287140011787415,"inertial",48
"49",-0.246734619140625,-0.040771484375,-0.844879150390625,0.118720002472401,0.43365478515625,-0.01812744140625,112.671951293945,1.04883182048798,-2.35991954803467,0.98931884765625,-0.474739998579025,0.284200012683868,"inertial",49
"50",-0.127105712890625,-0.04132080078125,-0.620574951171875,0.11956000328064,-0.13458251953125,-0.0152587890625,112.497428894043,0.881560683250427,-2.38814616203308,0.99078369140625,-0.472080022096634,0.288680016994476,"inertial",50
"51",0.351409912109375,-0.048095703125,-1.0467529296875,0.123060002923012,-0.13458251953125,-0.02191162109375,113.56819152832,1.27372050285339,-2.79737043380737,0.98431396484375,-0.471799999475479,0.282100021839142,"inertial",51
"52",0.28411865234375,-0.04571533203125,-1.14395141601562,0.123479999601841,-0.231903076171875,-0.02294921875,113.737213134766,1.33540689945221,-2.66159796714783,0.9833984375,-0.473760008811951,0.283360004425049,"inertial",52
"53",0.261688232421875,-0.03790283203125,-1.12899780273438,0.123479999601841,-0.10467529296875,-0.0228271484375,113.702644348145,1.32277178764343,-2.19729590415955,0.98785400390625,-0.474880009889603,0.281260013580322,"inertial",53
"54",0.216827392578125,-0.0428466796875,-0.755157470703125,0.120120003819466,-0.11962890625,-0.0067138671875,112.731018066406,0.3892502784729,-2.48494148254395,0.9873046875,-0.468160003423691,0.286720007658005,"inertial",54
"55",0.097198486328125,-0.0404052734375,-0.979461669921875,0.122780002653599,-0.11962890625,-0.0166015625,113.293571472168,0.962593555450439,-2.34365677833557,0.98724365234375,-0.480340003967285,0.285180002450943,"inertial",55
"56",-0.082244873046875,-0.0396728515625,-0.919647216796875,0.119979999959469,-0.07476806640625,-0.01336669921875,112.807250976562,0.774982631206512,-2.30093550682068,0.98736572265625,-0.464940011501312,0.28532001376152,"inertial",56
"57",-0.261688232421875,-0.03228759765625,-1.00189208984375,0.121100001037121,0.059814453125,-0.0072021484375,112.847373962402,0.417753905057907,-1.87317883968353,0.98724365234375,-0.472080022096634,0.287420004606247,"inertial",57
"58",-0.2691650390625,-0.03973388671875,-1.136474609375,0.124040000140667,-0.022430419921875,-0.0162353515625,113.445220947266,0.943310737609863,-2.30946278572083,0.9852294921875,-0.469980001449585,0.286020010709763,"inertial",58
"59",-0.635528564453125,-0.04254150390625,-1.38320922851562,0.121800005435944,0.10467529296875,-0.01910400390625,113.290908813477,1.10919845104218,-2.47107887268066,0.98577880859375,-0.469700008630753,0.282940000295639,"inertial",59
"60",-0.4486083984375,-0.03485107421875,-1.21871948242188,0.121800005435944,-0.097198486328125,-0.02618408203125,113.249794006348,1.51982152462006,-2.02378129959106,0.98626708984375,-0.468720018863678,0.283500015735626,"inertial",60
"61",-0.127105712890625,-0.0389404296875,-1.256103515625,0.11914000660181,0.16448974609375,-0.0244140625,112.824783325195,1.41385066509247,-2.25613260269165,0.9884033203125,-0.473200023174286,0.283080011606216,"inertial",61
"62",-0.01495361328125,-0.04217529296875,-1.06170654296875,0.120120003819466,-0.246734619140625,-0.02215576171875,112.721054077148,1.28333878517151,-2.44408965110779,0.98809814453125,-0.472360014915466,0.286860018968582,"inertial",62
"63",-0.2093505859375,-0.04791259765625,-1.27853393554688,0.119979999959469,-0.34393310546875,-0.02593994140625,112.93856048584,1.50398743152618,-2.77968168258667,0.98681640625,-0.478940010070801,0.283500015735626,"inertial",63
"64",0.22430419921875,-0.03936767578125,-1.07666015625,0.121240004897118,-0.216827392578125,-0.02117919921875,113.12353515625,1.23057591915131,-2.28834176063538,0.98516845703125,-0.470120012760162,0.283920019865036,"inertial",64
"65",0.059814453125,-0.04022216796875,-1.24862670898438,0.119979999959469,-0.216827392578125,-0.01300048828125,113.174407958984,0.753782272338867,-2.33290362358093,0.9873046875,-0.474880009889603,0.280279994010925,"inertial",65
"66",-0.246734619140625,-0.04693603515625,-1.29348754882812,0.117740005254745,0.441131591796875,-0.01202392578125,112.573593139648,0.697861015796661,-2.72530007362366,0.98602294921875,-0.477120012044907,0.283219993114471,"inertial",66
"67",-0.10467529296875,-0.0625,-2.22061157226562,0.121380001306534,-0.112152099609375,-0.017578125,112.964981079102,1.01589417457581,-3.61484432220459,0.98931884765625,-0.477120012044907,0.286440014839172,"inertial",67
"68",0.052337646484375,-0.03460693359375,-2.28042602539062,0.124040000140667,-0.22430419921875,-0.0421142578125,113.599731445312,2.45114636421204,-2.01584839820862,0.98321533203125,-0.473760008811951,0.283920019865036,"inertial",68
"69",0.695343017578125,-0.04290771484375,-2.38510131835938,0.119000002741814,-0.545806884765625,-0.03167724609375,112.61986541748,1.8614284992218,-2.52305960655212,0.9737548828125,-0.468580007553101,0.285600006580353,"inertial",69
"70",0.6280517578125,-0.037353515625,-1.75704956054688,0.121520005166531,-0.201873779296875,-0.037841796875,112.80883026123,2.17983484268188,-2.15325355529785,0.99346923828125,-0.474880009889603,0.288960009813309,"inertial",70
"71",0.95703125,-0.03765869140625,-1.41311645507812,0.121100001037121,-0.246734619140625,-0.04461669921875,112.767753601074,2.59193205833435,-2.30337309837341,0.9981689453125,-0.475300014019012,0.290220022201538,"inertial",71
"72",1.74209594726562,-0.03662109375,-0.85235595703125,0.121800005435944,-0.441131591796875,-0.0289306640625,112.610130310059,1.6853973865509,-2.13452363014221,0.9825439453125,-0.469560027122498,0.29245999455452,"inertial",72
"73",1.81686401367188,-0.040283203125,-0.67291259765625,0.123340003192425,-0.441131591796875,-0.0167236328125,113.225532531738,0.968479692935944,-2.33370184898376,0.98846435546875,-0.472500026226044,0.287420004606247,"inertial",73
"74",1.80938720703125,-0.0399169921875,-0.2392578125,0.11914000660181,-0.381317138671875,-0.005126953125,112.906112670898,0.296351671218872,-2.30795407295227,0.99041748046875,-0.471520006656647,0.281960010528564,"inertial",74
"75",1.854248046875,-0.038818359375,-0.35888671875,0.124180004000664,-0.276641845703125,0.00244140625,113.561370849609,-0.142018347978592,-2.25868129730225,0.98419189453125,-0.465780019760132,0.284759998321533,"inertial",75
"76",1.38320922851562,-0.039306640625,-0.64300537109375,0.12194000184536,-0.456085205078125,0.00360107421875,113.232666015625,-0.207074835896492,-2.26087117195129,0.99560546875,-0.466900020837784,0.284060001373291,"inertial",76
"77",0.934600830078125,-0.0380859375,-0.88226318359375,0.123900003731251,0.0299072265625,0.01275634765625,113.575996398926,-0.738688707351685,-2.206130027771,0.9886474609375,-0.469280004501343,0.283920019865036,"inertial",77
"78",0.829925537109375,-0.03076171875,-0.478515625,0.120260000228882,-0.276641845703125,0.00689697265625,113.129783630371,-0.3983995616436,-1.77724623680115,0.99139404296875,-0.470120012760162,0.281540006399155,"inertial",78
"79",0.0897216796875,-0.0350341796875,-0.07476806640625,0.122080005705357,0.007476806640625,0.0115966796875,113.205390930176,-0.671825289726257,-2.03013730049133,0.98834228515625,-0.464520007371902,0.284759998321533,"inertial",79
"80",-0.2093505859375,-0.0234375,0.082244873046875,0.122640006244183,0.157012939453125,0.0125732421875,113.632385253906,-0.724799990653992,-1.35128080844879,0.99359130859375,-0.470400005578995,0.280279994010925,"inertial",80
"81",-0.70281982421875,-0.0318603515625,-0.2691650390625,0.119840003550053,0.052337646484375,0.0076904296875,113.212448120117,-0.443970143795013,-1.8396577835083,0.991943359375,-0.471660017967224,0.279440015554428,"inertial",81
"82",-1.15142822265625,-0.033447265625,-1.18133544921875,0.123060002923012,0.485992431640625,0.01104736328125,113.672836303711,-0.63674122095108,-1.92825663089752,0.99346923828125,-0.471940010786057,0.280699998140335,"inertial",82
"83",-1.42807006835938,-0.0389404296875,-1.96640014648438,0.125440001487732,0.16448974609375,-0.00640869140625,113.899360656738,0.373694241046906,-2.27126431465149,0.9818115234375,-0.470540016889572,0.283080011606216,"inertial",83
"84",-1.36825561523438,-0.0311279296875,-1.6448974609375,0.122220002114773,0.2392578125,-0.01165771484375,113.342002868652,0.67540842294693,-1.80382812023163,0.9884033203125,-0.470679998397827,0.283219993114471,"inertial",84
"85",-1.26358032226562,-0.0380859375,-0.95703125,0.124460004270077,0.10467529296875,-0.00927734375,113.84871673584,0.535887837409973,-2.20056557655334,0.99114990234375,-0.471240013837814,0.281540006399155,"inertial",85
"86",-1.59255981445312,-0.0343017578125,-0.934600830078125,0.125860005617142,0.171966552734375,-0.01593017578125,113.949356079102,0.919459998607635,-1.98039770126343,0.99200439453125,-0.467600017786026,0.283360004425049,"inertial",86
"87",-1.45050048828125,-0.04205322265625,-1.15890502929688,0.121660001575947,0.171966552734375,-0.00750732421875,113.370300292969,0.435561537742615,-2.44063782691956,0.98663330078125,-0.471799999475479,0.281540006399155,"inertial",87
"88",-1.32339477539062,-0.0389404296875,-1.1663818359375,0.120820000767708,0.037384033203125,-0.00506591796875,113.051811218262,0.292979419231415,-2.25265860557556,0.98992919921875,-0.466760009527206,0.283920019865036,"inertial",88
"89",-1.86172485351562,-0.037353515625,-1.18881225585938,0.119979999959469,0.46356201171875,-0.013916015625,112.948722839355,0.802197337150574,-2.15391445159912,0.9931640625,-0.475859999656677,0.283360004425049,"inertial",89
"90",-1.86172485351562,-0.039794921875,-1.6748046875,0.117600001394749,0.418701171875,-0.01898193359375,112.360374450684,1.09131479263306,-2.28878664970398,0.99566650390625,-0.472220003604889,0.285879999399185,"inertial",90
"91",-1.84677124023438,-0.0408935546875,-2.10098266601562,0.119979999959469,0.201873779296875,-0.036376953125,112.898010253906,2.1151978969574,-2.37958812713623,0.98406982421875,-0.473620027303696,0.284060001373291,"inertial",91
"92",-1.56265258789062,-0.04669189453125,-1.65985107421875,0.123900003731251,0.306549072265625,-0.04144287109375,113.596733093262,2.41777515411377,-2.72664999961853,0.98040771484375,-0.47502002120018,0.283639997243881,"inertial",92
"93",-0.949554443359375,-0.04119873046875,-1.77200317382812,0.117600001394749,0.01495361328125,-0.039306640625,112.640060424805,2.27199649810791,-2.38329887390137,0.9898681640625,-0.471380025148392,0.281960010528564,"inertial",93
"94",-0.55328369140625,-0.04168701171875,-1.42059326171875,0.118440002202988,-0.059814453125,-0.04443359375,112.563888549805,2.57297801971436,-2.41627430915833,0.9879150390625,-0.47026002407074,0.285040020942688,"inertial",94
"95",-0.2392578125,-0.052490234375,-1.18881225585938,0.121520005166531,-0.37384033203125,-0.03082275390625,113.335922241211,1.78826522827148,-3.0477888584137,0.98583984375,-0.471240013837814,0.281680017709732,"inertial",95
"96",-0.40374755859375,-0.05499267578125,-0.904693603515625,0.118440002202988,0,-0.04620361328125,112.93864440918,2.72109723091125,-3.24288535118103,0.9705810546875,-0.473900020122528,0.279860019683838,"inertial",96
"97",0.770111083984375,-0.0469970703125,-1.36077880859375,0.11676000058651,-0.650482177734375,-0.02850341796875,112.434326171875,1.66008591651917,-2.73899579048157,0.98236083984375,-0.466760009527206,0.282800018787384,"inertial",97
"98",0.471038818359375,-0.05096435546875,-1.24114990234375,0.120820000767708,-0.2093505859375,-0.0218505859375,113.174575805664,1.26888966560364,-2.96136331558228,0.98516845703125,-0.467320024967194,0.282240003347397,"inertial",98
"99",0.5682373046875,-0.04522705078125,-2.26547241210938,0.115220002830029,-0.28411865234375,-0.0184326171875,112.127670288086,1.0643767118454,-2.61280560493469,0.9910888671875,-0.468020021915436,0.283360004425049,"inertial",99
"100",0.306549072265625,-0.0423583984375,-2.40753173828125,0.120260000228882,-0.067291259765625,-0.0213623046875,112.976371765137,1.23494803905487,-2.44985127449036,0.99005126953125,-0.468160003423691,0.283639997243881,"inertial",100
"101",0.34393310546875,-0.03466796875,-2.17575073242188,0.117740005254745,-0.142059326171875,-0.031005859375,112.325233459473,1.79842662811279,-2.01191329956055,0.98687744140625,-0.47502002120018,0.286720007658005,"inertial",101
"102",0.59814453125,-0.03460693359375,-0.336456298828125,0.11676000058651,0.022430419921875,-0.03326416015625,113.243522644043,1.93613469600677,-2.01547336578369,0.9873046875,-0.477960020303726,0.28098002076149,"inertial",102
"103",0.6878662109375,-0.03704833984375,-0.4486083984375,0.117600001394749,0.04486083984375,-0.0250244140625,112.38013458252,1.44955658912659,-2.14701128005981,0.98822021484375,-0.467460006475449,0.285600006580353,"inertial",103
"104",0.889739990234375,-0.03564453125,-0.8074951171875,0.116200000047684,-0.299072265625,-0.02325439453125,112.208404541016,1.34423542022705,-2.0612781047821,0.9903564453125,-0.471380025148392,0.284620016813278,"inertial",104
"105",0.9271240234375,-0.032958984375,-0.964508056640625,0.11914000660181,-0.2093505859375,-0.00994873046875,112.89591217041,0.578473448753357,-1.91683769226074,0.98480224609375,-0.46900001168251,0.282100021839142,"inertial",105
"106",0.5084228515625,-0.03143310546875,-0.650482177734375,0.123900003731251,0.13458251953125,-0.0145263671875,113.93270111084,0.840075969696045,-1.81824696063995,0.99017333984375,-0.473200023174286,0.283360004425049,"inertial",106
"107",0.620574951171875,-0.03448486328125,-0.13458251953125,0.123479999601841,-0.037384033203125,-0.0164794921875,113.401863098145,0.948821783065796,-1.98607671260834,0.99444580078125,-0.476700007915497,0.28532001376152,"inertial",107
"108",0.441131591796875,-0.043701171875,-0.13458251953125,0.121660001575947,-0.059814453125,-0.013916015625,113.287582397461,0.80688750743866,-2.53490424156189,0.98712158203125,-0.47978001832962,0.282660007476807,"inertial",108
"109",0.31402587890625,-0.04376220703125,-0.94207763671875,0.123620003461838,0,-0.0093994140625,113.590721130371,0.548302948474884,-2.55373644828796,0.981201171875,-0.477680027484894,0.283080011606216,"inertial",109
"110",0.40374755859375,-0.0362548828125,-1.24862670898438,0.119840003550053,-0.157012939453125,-0.01556396484375,112.643653869629,0.898043036460876,-2.09254837036133,0.99224853515625,-0.47544002532959,0.28727999329567,"inertial",110
"111",0.31402587890625,-0.04052734375,-1.11404418945312,0.118300005793571,-0.11962890625,-0.01751708984375,112.649993896484,1.01534855365753,-2.35000371932983,0.987548828125,-0.475720018148422,0.283500015735626,"inertial",111
"112",0.059814453125,-0.038330078125,-0.859832763671875,0.120400004088879,-0.11962890625,-0.01568603515625,112.828636169434,0.908585250377655,-2.220942735672,0.98834228515625,-0.475580006837845,0.286020010709763,"inertial",112
"113",0.261688232421875,-0.0430908203125,-0.859832763671875,0.124040000140667,-0.052337646484375,-0.0167236328125,113.61009979248,0.970516800880432,-2.50170874595642,0.98626708984375,-0.476140022277832,0.283780008554459,"inertial",113
"114",0.11962890625,-0.0418701171875,-1.11404418945312,0.122500002384186,-0.082244873046875,-0.0167236328125,113.338241577148,0.968952655792236,-2.42687487602234,0.9879150390625,-0.47460001707077,0.283920019865036,"inertial",114
"115",-0.127105712890625,-0.03631591796875,-0.844879150390625,0.119979999959469,-0.01495361328125,-0.018798828125,112.727157592773,1.0917592048645,-2.10981225967407,0.98577880859375,-0.469280004501343,0.286440014839172,"inertial",115
"116",0.04486083984375,-0.04925537109375,-0.829925537109375,0.123620003461838,0,-0.01593017578125,113.885131835938,0.930873334407806,-2.87968301773071,0.97918701171875,-0.467460006475449,0.279159992933273,"inertial",116
"117",0.059814453125,-0.0364990234375,-0.979461669921875,0.121520005166531,0.059814453125,-0.01806640625,113.315223693848,1.04741263389587,-2.11677408218384,0.98748779296875,-0.467600017786026,0.281960010528564,"inertial",117
"118",0.34393310546875,-0.04559326171875,-1.30844116210938,0.123759999871254,-0.11962890625,-0.01983642578125,113.708465576172,1.14984881877899,-2.64417672157288,0.98724365234375,-0.462559998035431,0.281819999217987,"inertial",118
"119",0.5084228515625,-0.0391845703125,-1.12152099609375,0.12236000597477,-0.201873779296875,-0.01971435546875,113.563354492188,1.14252853393555,-2.27180457115173,0.98773193359375,-0.469560027122498,0.28056001663208,"inertial",119
"120",0.022430419921875,-0.0394287109375,-0.814971923828125,0.122080005705357,-0.052337646484375,-0.0145263671875,113.57820892334,0.841905891895294,-2.28594398498535,0.98773193359375,-0.468720018863678,0.27972000837326,"inertial",120
"121",0.396270751953125,-0.0416259765625,-0.88226318359375,0.119699999690056,-0.2691650390625,-0.01568603515625,113.126014709473,0.907288551330566,-2.40857911109924,0.9896240234375,-0.463260024785995,0.280279994010925,"inertial",121
"122",0.179443359375,-0.0457763671875,-1.07666015625,0.120400004088879,0.201873779296875,-0.0087890625,113.153877258301,0.510719299316406,-2.66102337837219,0.98492431640625,-0.464520007371902,0.281540006399155,"inertial",122
"123",0.2093505859375,-0.04632568359375,-1.136474609375,0.12194000184536,0.052337646484375,-0.00445556640625,113.407913208008,0.259836494922638,-2.70260834693909,0.98138427734375,-0.471799999475479,0.281680017709732,"inertial",123
"124",0.037384033203125,-0.0220947265625,-1.03179931640625,0.118860006332397,-0.46356201171875,0.01953125,112.566078186035,-1.11925733089447,-1.26642405986786,0.99945068359375,-0.475160002708435,0.286020010709763,"inertial",124
"125",-0.2392578125,-0.02947998046875,-1.48040771484375,0.120120003819466,-0.411224365234375,0.0150146484375,113.07487487793,-0.865165770053864,-1.69905722141266,0.99383544921875,-0.472220003604889,0.281960010528564,"inertial",125
"126",-1.7047119140625,-0.02813720703125,-1.5850830078125,0.126000002026558,0.157012939453125,0.03265380859375,113.774864196777,-1.87248849868774,-1.6142783164978,0.9984130859375,-0.474320024251938,0.286020010709763,"inertial",126
"127",-1.29348754882812,-0.020263671875,-1.72714233398438,0.124600000679493,0.500946044921875,0.00726318359375,113.539573669434,-0.420832425355911,-1.17419040203094,0.9886474609375,-0.469700008630753,0.286020010709763,"inertial",127
"128",-2.76641845703125,-0.0413818359375,-1.09909057617188,0.123900003731251,0.49346923828125,-0.009033203125,113.49341583252,0.53052169084549,-2.43116164207458,0.97467041015625,-0.472920000553131,0.285040020942688,"inertial",128
"129",-2.0635986328125,-0.046142578125,-0.55328369140625,0.119979999959469,0.25421142578125,-0.036865234375,113.112442016602,2.14690899848938,-2.68943667411804,0.9822998046875,-0.467739999294281,0.281120002269745,"inertial",129
"130",-1.99630737304688,-0.0426025390625,-0.994415283203125,0.121240004897118,0.366363525390625,-0.03662109375,113.381317138672,2.13543200492859,-2.48615026473999,0.981201171875,-0.477960020303726,0.280420005321503,"inertial",130
"131",-1.05422973632812,-0.03289794921875,-1.36077880859375,0.120260000228882,0.07476806640625,-0.052001953125,112.925659179688,3.01279187202454,-1.90809118747711,0.98748779296875,-0.473340004682541,0.284339994192123,"inertial",131
"132",-0.710296630859375,-0.05328369140625,-1.09161376953125,0.116200000047684,0.0299072265625,-0.058837890625,111.964424133301,3.39342975616455,-3.07817435264587,0.9908447265625,-0.469980001449585,0.288120001554489,"inertial",132
"133",-0.276641845703125,-0.04541015625,-0.964508056640625,0.114100001752377,0.067291259765625,-0.051513671875,111.874366760254,2.99153256416321,-2.64041900634766,0.98468017578125,-0.46984001994133,0.284200012683868,"inertial",133
"134",0.22430419921875,-0.045654296875,-1.03927612304688,0.111440002918243,0,-0.05224609375,111.353645324707,3.0473096370697,-2.66631197929382,0.9803466796875,-0.46984001994133,0.285040020942688,"inertial",134
"135",1.15142822265625,-0.05072021484375,-0.82244873046875,0.117180004715919,-0.112152099609375,-0.04638671875,112.822067260742,2.69555020332336,-2.95085215568542,0.98394775390625,-0.473620027303696,0.278459995985031,"inertial",135
"136",1.136474609375,-0.0439453125,-0.79254150390625,0.119840003550053,0.059814453125,-0.03424072265625,112.975601196289,1.99008250236511,-2.55599188804626,0.98443603515625,-0.468720018863678,0.282660007476807,"inertial",136
"137",1.74209594726562,-0.04022216796875,-0.919647216796875,0.116340003907681,-0.426177978515625,-0.0306396484375,112.421615600586,1.76635706424713,-2.32015228271484,0.99273681640625,-0.467600017786026,0.281960010528564,"inertial",137
"138",1.60751342773438,-0.0404052734375,-0.770111083984375,0.118720002472401,-0.418701171875,-0.02508544921875,113.080337524414,1.45155549049377,-2.33917880058289,0.9891357421875,-0.465920001268387,0.278600007295609,"inertial",138
"139",1.2860107421875,-0.03973388671875,-1.1663818359375,0.121380001306534,-0.246734619140625,-0.017578125,113.239677429199,1.0171617269516,-2.30006861686707,0.9892578125,-0.46340000629425,0.282660007476807,"inertial",139
"140",1.39068603515625,-0.03564453125,-0.844879150390625,0.125440001487732,-0.28411865234375,-0.01165771484375,113.629379272461,0.673684179782867,-2.06038999557495,0.99078369140625,-0.468860000371933,0.286720007658005,"inertial",140
"141",1.1065673828125,-0.03863525390625,-0.994415283203125,0.123200006783009,-0.418701171875,-0.0052490234375,113.334045410156,0.303722083568573,-2.23612427711487,0.98944091796875,-0.471100002527237,0.285600006580353,"inertial",141
"142",0.800018310546875,-0.03564453125,-1.21871948242188,0.122080005705357,0.007476806640625,-0.000732421875,113.380043029785,0.0421926639974117,-2.05381655693054,0.99395751953125,-0.471240013837814,0.282380014657974,"inertial",142
"143",0.22430419921875,-0.0386962890625,-1.016845703125,0.119840003550053,-0.10467529296875,-0.0159912109375,112.753288269043,0.925218880176544,-2.23965334892273,0.98944091796875,-0.46900001168251,0.28574001789093,"inertial",143
"144",0.179443359375,-0.03912353515625,-0.874786376953125,0.121100001037121,0.037384033203125,-0.015380859375,113.284545898438,0.899198472499847,-2.28804278373718,0.97918701171875,-0.467180013656616,0.281399995088577,"inertial",144
"145",0.411224365234375,-0.041015625,-0.934600830078125,0.119979999959469,-0.082244873046875,-0.00299072265625,112.928413391113,0.172907546162605,-2.37198829650879,0.99017333984375,-0.472220003604889,0.283639997243881,"inertial",145
"146",0.31402587890625,-0.0372314453125,-0.770111083984375,0.125579997897148,-0.246734619140625,-0.00689697265625,113.933547973633,0.398359507322311,-2.15097618103027,0.99127197265625,-0.472080022096634,0.282940000295639,"inertial",146
"147",-0.216827392578125,-0.04376220703125,-0.64300537109375,0.127400010824203,0.112152099609375,-0.0023193359375,114.208908081055,0.135274216532707,-2.55326056480408,0.98138427734375,-0.46984001994133,0.283360004425049,"inertial",147
"148",-0.216827392578125,-0.03948974609375,-1.44302368164062,0.123479999601841,0.067291259765625,-0.009033203125,113.63981628418,0.523495376110077,-2.28919625282288,0.98785400390625,-0.471799999475479,0.282100021839142,"inertial",148
"149",-0.418701171875,-0.03851318359375,-0.874786376953125,0.117320001125336,0.112152099609375,-0.00823974609375,112.481101989746,0.475451052188873,-2.22290205955505,0.9921875,-0.466619998216629,0.283500015735626,"inertial",149
"150",-0.538330078125,-0.03900146484375,-0.964508056640625,0.11956000328064,0.04486083984375,-0.00592041015625,112.937660217285,0.342986911535263,-2.26008343696594,0.98822021484375,-0.472640007734299,0.282519996166229,"inertial",150
"151",-0.3289794921875,-0.03826904296875,-0.874786376953125,0.121800005435944,0.01495361328125,-0.0123291015625,113.321838378906,0.713373780250549,-2.21495008468628,0.98944091796875,-0.472080022096634,0.282519996166229,"inertial",151
"152",-0.43365478515625,-0.0401611328125,-1.51031494140625,0.119699999690056,-0.04486083984375,-0.0072021484375,113.136360168457,0.417168408632278,-2.3269248008728,0.98834228515625,-0.467600017786026,0.28014001250267,"inertial",152
"153",-0.979461669921875,-0.03656005859375,-1.09909057617188,0.122640006244183,0.157012939453125,-0.0128173828125,113.973281860352,0.741488814353943,-2.11560726165771,0.98968505859375,-0.476000010967255,0.27580001950264,"inertial",153
"154",-0.49346923828125,-0.033447265625,-1.14395141601562,0.123060002923012,0.01495361328125,-0.0126953125,113.599494934082,0.734916806221008,-1.93669807910919,0.9891357421875,-0.477260023355484,0.281680017709732,"inertial",154
"155",-0.97198486328125,-0.0406494140625,-0.83740234375,0.114520005881786,0.25421142578125,-0.02520751953125,111.859527587891,1.46754729747772,-2.36774468421936,0.98309326171875,-0.475160002708435,0.285459995269775,"inertial",155
"156",-0.590667724609375,-0.0428466796875,-0.777587890625,0.120820000767708,0.097198486328125,-0.02264404296875,112.78003692627,1.31432795524597,-2.48816776275635,0.98602294921875,-0.472080022096634,0.287699997425079,"inertial",156
"157",-0.635528564453125,-0.0347900390625,-1.06918334960938,0.117880001664162,0,-0.0159912109375,112.688514709473,0.923477113246918,-2.00967741012573,0.991455078125,-0.470679998397827,0.281960010528564,"inertial",157
"158",-0.620574951171875,-0.042236328125,-1.12152099609375,0.118300005793571,0.037384033203125,-0.0242919921875,112.470352172852,1.40963184833527,-2.45216083526611,0.98626708984375,-0.471380025148392,0.286020010709763,"inertial",158
"159",-0.82244873046875,-0.0399169921875,-1.23367309570312,0.117600001394749,0.171966552734375,-0.02276611328125,112.640060424805,1.31596577167511,-2.3083803653717,0.990234375,-0.465640008449554,0.281960010528564,"inertial",159
"160",-0.710296630859375,-0.04168701171875,-0.964508056640625,0.117740005254745,0.11962890625,-0.02288818359375,112.443794250488,1.32798624038696,-2.41985821723938,0.9864501953125,-0.472920000553131,0.285040020942688,"inertial",160
"161",-0.785064697265625,-0.0445556640625,-1.21124267578125,0.119979999959469,0.351409912109375,-0.01995849609375,113.205505371094,1.16271567344666,-2.59691047668457,0.98236083984375,-0.470120012760162,0.279860019683838,"inertial",161
"162",-0.381317138671875,-0.0426025390625,-1.26358032226562,0.116060003638268,-0.052337646484375,-0.03076171875,112.115478515625,1.76725172996521,-2.44902539253235,0.99609375,-0.474880009889603,0.285600006580353,"inertial",162
"163",-0.5682373046875,-0.0455322265625,-1.92901611328125,0.112700000405312,0.10467529296875,-0.03778076171875,111.776893615723,2.18736672401428,-2.63836169242859,0.98809814453125,-0.472080022096634,0.282100021839142,"inertial",163
"164",-0.059814453125,-0.03485107421875,-1.45050048828125,0.111020006239414,0,-0.0462646484375,111.395164489746,2.68105888366699,-2.02153134346008,0.98736572265625,-0.474460005760193,0.283360004425049,"inertial",164
"165",0.306549072265625,-0.04608154296875,-1.00936889648438,0.110180005431175,0.067291259765625,-0.03753662109375,110.964576721191,2.18787431716919,-2.68821930885315,0.9814453125,-0.471940010786057,0.287560015916824,"inertial",165
"166",0.5682373046875,-0.03570556640625,-0.456085205078125,0.112700000405312,-0.216827392578125,-0.01751708984375,111.505844116211,1.0173602104187,-2.07438445091248,0.98577880859375,-0.483420014381409,0.286020010709763,"inertial",166
"167",0.545806884765625,-0.04876708984375,-0.8074951171875,0.117320001125336,-0.157012939453125,-0.02764892578125,112.351844787598,1.59960186481476,-2.82324838638306,0.9888916015625,-0.483700007200241,0.28532001376152,"inertial",167
"168",0.246734619140625,-0.03985595703125,-1.36825561523438,0.115919999778271,-0.179443359375,-0.0186767578125,112.328659057617,1.07951772212982,-2.30457067489624,0.9903564453125,-0.480900019407272,0.282240003347397,"inertial",168
"169",0.291595458984375,-0.0321044921875,-1.31591796875,0.117040000855923,-0.059814453125,-0.0240478515625,112.02091217041,1.38743603229523,-1.852947473526,0.99237060546875,-0.47502002120018,0.289380013942719,"inertial",169
"170",-0.059814453125,-0.0396728515625,-0.605621337890625,0.119420006871223,-0.04486083984375,-0.0186767578125,112.903396606445,1.08775615692139,-2.31149792671204,0.98284912109375,-0.475580006837845,0.282660007476807,"inertial",170
"171",-0.201873779296875,-0.050048828125,-0.560760498046875,0.122780002653599,0.351409912109375,-0.0078125,113.010803222656,0.462308794260025,-2.96305060386658,0.9669189453125,-0.478660017251968,0.289100021123886,"inertial",171
"172",-0.037384033203125,-0.04315185546875,-1.11404418945312,0.114800006151199,-0.2691650390625,-0.0279541015625,112.153694152832,1.60787296295166,-2.48345160484314,0.99493408203125,-0.476000010967255,0.281960010528564,"inertial",172
"173",-0.186920166015625,-0.05010986328125,-1.00936889648438,0.117880001664162,-0.16448974609375,-0.0218505859375,112.467834472656,1.27012288570404,-2.91450190544128,0.9842529296875,-0.473620027303696,0.285040020942688,"inertial",173
"174",-0.291595458984375,-0.03277587890625,-0.88226318359375,0.118860006332397,-0.052337646484375,-0.01361083984375,112.556144714355,0.783724784851074,-1.88772475719452,0.99444580078125,-0.476560026407242,0.28616002202034,"inertial",174
"175",-0.904693603515625,-0.0443115234375,-0.94207763671875,0.117040000855923,0.179443359375,-0.0311279296875,112.343292236328,1.81611216068268,-2.58703398704529,0.980712890625,-0.472220003604889,0.284759998321533,"inertial",175
"176",-0.889739990234375,-0.053955078125,-1.00189208984375,0.115360006690025,0.49346923828125,-0.03668212890625,112.291191101074,2.14255356788635,-3.15450644493103,0.97900390625,-0.47502002120018,0.281399995088577,"inertial",176
"177",0.052337646484375,-0.03668212890625,-1.24862670898438,0.116060003638268,-0.43365478515625,-0.02899169921875,112.164558410645,1.68206441402435,-2.12935590744019,0.986572265625,-0.473900020122528,0.284900009632111,"inertial",177
"178",-0.059814453125,-0.03570556640625,-0.8673095703125,0.118020005524158,-0.171966552734375,-0.0308837890625,112.52173614502,1.78533291816711,-2.06518602371216,0.99017333984375,-0.480340003967285,0.284620016813278,"inertial",178
"179",-0.73272705078125,-0.04315185546875,-1.06170654296875,0.119280003011227,0.418701171875,-0.03631591796875,112.548454284668,2.10779571533203,-2.50648713111877,0.98577880859375,-0.472780019044876,0.28727999329567,"inertial",179
"180",-0.10467529296875,-0.04241943359375,-0.949554443359375,0.120960004627705,0.007476806640625,-0.0340576171875,113.26049041748,1.96295356750488,-2.44659781455994,0.9927978515625,-0.47502002120018,0.281399995088577,"inertial",180
"181",-0.067291259765625,-0.0440673828125,-1.08413696289062,0.115639999508858,0.0299072265625,-0.03594970703125,111.955520629883,2.08905339241028,-2.56276488304138,0.98455810546875,-0.476560026407242,0.286860018968582,"inertial",181
"182",0.07476806640625,-0.0462646484375,-1.03179931640625,0.123060002923012,0.097198486328125,-0.03460693359375,113.188484191895,2.0039484500885,-2.68107104301453,0.98797607421875,-0.475580006837845,0.28727999329567,"inertial",182
"183",0.35888671875,-0.03759765625,-0.91217041015625,0.11116000264883,0.022430419921875,-0.02801513671875,110.930168151855,1.62007808685303,-2.17532467842102,0.98980712890625,-0.474880009889603,0.290639996528625,"inertial",183
"184",0.07476806640625,-0.04345703125,-0.64300537109375,0.117040000855923,0.037384033203125,-0.028564453125,112.402862548828,1.65652215480804,-2.52169561386108,0.98675537109375,-0.466900020837784,0.283920019865036,"inertial",184
"185",0.321502685546875,-0.04132080078125,-0.874786376953125,0.114660002291203,-0.13458251953125,-0.03192138671875,111.951957702637,1.8491884469986,-2.39522051811218,0.98785400390625,-0.472080022096634,0.284480005502701,"inertial",185
"186",0.35888671875,-0.04058837890625,-1.0467529296875,0.120120003819466,-0.1495361328125,-0.0274658203125,112.701141357422,1.59186100959778,-2.353684425354,0.98748779296875,-0.470960021018982,0.287140011787415,"inertial",186
"187",-0.01495361328125,-0.040771484375,-0.680389404296875,0.116900004446507,0.16448974609375,-0.02593994140625,112.319190979004,1.51278471946716,-2.37897777557373,0.98138427734375,-0.471940010786057,0.284759998321533,"inertial",187
"188",0.261688232421875,-0.03424072265625,-0.515899658203125,0.11438000202179,-0.10467529296875,-0.017578125,111.893669128418,1.01512110233307,-1.97797107696533,0.991455078125,-0.470820009708405,0.284620016813278,"inertial",188
"189",0.366363525390625,-0.04583740234375,-0.844879150390625,0.118860006332397,-0.13458251953125,-0.02349853515625,112.695976257324,1.36414241790771,-2.66242456436157,0.9857177734375,-0.468300014734268,0.284200012683868,"inertial",189
"190",0.0299072265625,-0.03973388671875,-1.1065673828125,0.120120003819466,0.082244873046875,-0.02471923828125,112.4453125,1.43412220478058,-2.30632305145264,0.986572265625,-0.470960021018982,0.290780007839203,"inertial",190
"191",0.306549072265625,-0.04254150390625,-1.18133544921875,0.121240004897118,-0.411224365234375,-0.0167236328125,113.032043457031,0.965946733951569,-2.45815801620483,0.990966796875,-0.469560027122498,0.285180002450943,"inertial",191
"192",-0.04486083984375,-0.03662109375,-0.994415283203125,0.115639999508858,-0.142059326171875,-0.015625,111.696647644043,0.905724048614502,-2.12345361709595,0.9876708984375,-0.46508002281189,0.290639996528625,"inertial",192
"193",-0.022430419921875,-0.0408935546875,-0.70281982421875,0.120680004358292,-0.127105712890625,-0.0179443359375,112.736457824707,1.03823459148407,-2.36697697639465,0.98931884765625,-0.473060011863708,0.287980020046234,"inertial",193
"194",-0.25421142578125,-0.04534912109375,-1.18881225585938,0.117880001664162,-0.157012939453125,-0.01849365234375,111.632141113281,1.07695937156677,-2.64210820198059,0.99053955078125,-0.471520006656647,0.284480005502701,"inertial",194
"195",-0.3289794921875,-0.03753662109375,-1.06170654296875,0.117180004715919,0.127105712890625,-0.0247802734375,112.122138977051,1.43107080459595,-2.16872382164001,0.9912109375,-0.471240013837814,0.288260012865067,"inertial",195
"196",-0.2691650390625,-0.04254150390625,-1.15142822265625,0.119280003011227,0.007476806640625,-0.03204345703125,112.188125610352,1.85959601402283,-2.47046780586243,0.98602294921875,-0.469280004501343,0.29245999455452,"inertial",196
"197",-0.059814453125,-0.0462646484375,-1.1065673828125,0.11396000534296,-0.10467529296875,-0.0430908203125,111.675888061523,2.50344157218933,-2.69053149223328,0.9844970703125,-0.47026002407074,0.286720007658005,"inertial",197
"198",0.067291259765625,-0.0391845703125,-0.88226318359375,0.112980000674725,-0.246734619140625,-0.0262451171875,111.699043273926,1.52198386192322,-2.27348852157593,0.98699951171875,-0.471380025148392,0.283920019865036,"inertial",198
"199",0.2392578125,-0.040283203125,-0.949554443359375,0.116900004446507,-0.2691650390625,-0.02490234375,112.171676635742,1.44337165355682,-2.3360071182251,0.98748779296875,-0.467600017786026,0.286860018968582,"inertial",199
"200",0.157012939453125,-0.037841796875,-1.21871948242188,0.115360006690025,-0.112152099609375,-0.0234375,111.849464416504,1.35171115398407,-2.18338370323181,0.9925537109375,-0.467600017786026,0.287699997425079,"inertial",200
"201",0.082244873046875,-0.03863525390625,-0.9271240234375,0.114240005612373,0.052337646484375,-0.0242919921875,111.90843963623,1.39946973323822,-2.22679305076599,0.99359130859375,-0.468300014734268,0.284060001373291,"inertial",201
"202",0,-0.0418701171875,-0.814971923828125,0.117320001125336,-0.2093505859375,-0.02227783203125,112.126594543457,1.28907334804535,-2.42388343811035,0.9891357421875,-0.467040002346039,0.288540005683899,"inertial",202
"203",-0.201873779296875,-0.03826904296875,-0.61309814453125,0.114800006151199,-0.067291259765625,-0.01812744140625,112.084350585938,1.04958403110504,-2.2165892124176,0.98870849609375,-0.47460001707077,0.282940000295639,"inertial",203
"204",-0.381317138671875,-0.04034423828125,-1.256103515625,0.118440002202988,0.022430419921875,-0.0198974609375,112.573867797852,1.15550601482391,-2.34388399124146,0.98565673828125,-0.466340005397797,0.284900009632111,"inertial",204
"205",-0.216827392578125,-0.04058837890625,-0.994415283203125,0.117460004985332,0.22430419921875,-0.01995849609375,112.676574707031,1.15347743034363,-2.34672975540161,0.99041748046875,-0.471240013837814,0.281120002269745,"inertial",205
"206",-0.485992431640625,-0.03863525390625,-0.76263427734375,0.118720002472401,0.2691650390625,-0.02838134765625,112.552093505859,1.64067316055298,-2.23460960388184,0.9901123046875,-0.474880009889603,0.285879999399185,"inertial",206
"207",-0.2392578125,-0.04229736328125,-0.859832763671875,0.11914000660181,0.216827392578125,-0.03265380859375,113.00853729248,1.88511824607849,-2.44346690177917,0.9912109375,-0.465220004320145,0.28056001663208,"inertial",207
"208",0.112152099609375,-0.04376220703125,-1.1663818359375,0.115220002830029,-0.1495361328125,-0.03790283203125,112.127670288086,2.19812417030334,-2.54000854492188,0.98651123046875,-0.47026002407074,0.283360004425049,"inertial",208
"209",0.142059326171875,-0.037353515625,-0.814971923828125,0.114660002291203,0.052337646484375,-0.0411376953125,112.228981018066,2.38277101516724,-2.16534781455994,0.9879150390625,-0.469140022993088,0.28056001663208,"inertial",209
"210",0.8074951171875,-0.048583984375,-0.590667724609375,0.11676000058651,-0.291595458984375,-0.019775390625,111.867935180664,1.14805781841278,-2.82205557823181,0.985595703125,-0.46942001581192,0.29092001914978,"inertial",210
"211",0.201873779296875,-0.0399169921875,-0.64300537109375,0.119699999690056,-0.037384033203125,-0.021728515625,112.442749023438,1.25492763519287,-2.30639219284058,0.9910888671875,-0.46508002281189,0.289800018072128,"inertial",211
"212",0.59814453125,-0.03607177734375,-1.495361328125,0.11956000328064,-0.171966552734375,-0.0133056640625,112.389862060547,0.771742641925812,-2.09279322624207,0.98712158203125,-0.470679998397827,0.290220022201538,"inertial",212
"213",-0.19439697265625,-0.0347900390625,-0.79254150390625,0.116620004177094,0.097198486328125,-0.0118408203125,111.835227966309,1.01580727100372,-2.01541042327881,0.9888916015625,-0.476140022277832,0.289100021123886,"inertial",213
"214",-0.351409912109375,-0.0408935546875,-1.00189208984375,0.11438000202179,-0.022430419921875,-0.01806640625,112.100280761719,1.04878318309784,-2.37487983703613,0.98602294921875,-0.463960021734238,0.281680017709732,"inertial",214
"215",-0.28411865234375,-0.0362548828125,-1.23367309570312,0.114100001752377,-0.07476806640625,-0.01422119140625,112.041465759277,0.826055526733398,-2.10653018951416,0.98565673828125,-0.46900001168251,0.281819999217987,"inertial",215
"216",-0.351409912109375,-0.0369873046875,-1.20376586914062,0.113680005073547,-0.112152099609375,-0.0235595703125,111.532104492188,1.36777651309967,-2.14824938774109,0.98602294921875,-0.463960021734238,0.288120001554489,"inertial",216
"217",-0.418701171875,-0.04071044921875,-0.560760498046875,0.114100001752377,0.04486083984375,-0.0089111328125,111.509429931641,0.515219867229462,-2.35450434684753,0.9901123046875,-0.47026002407074,0.289519995450974,"inertial",217
"218",-0.95703125,-0.0345458984375,-0.5682373046875,0.112560003995895,0.127105712890625,-0.0142822265625,111.133430480957,0.825516939163208,-1.99730587005615,0.9906005859375,-0.471940010786057,0.291200011968613,"inertial",218
"219",-0.8074951171875,-0.0406494140625,-1.03927612304688,0.114660002291203,0.0897216796875,-0.02191162109375,112.238998413086,1.27281486988068,-2.36232423782349,0.9853515625,-0.473760008811951,0.280420005321503,"inertial",219
"220",-0.710296630859375,-0.0372314453125,-0.934600830078125,0.113120004534721,-0.082244873046875,-0.01397705078125,111.397857666016,0.811294555664062,-2.16174745559692,0.986328125,-0.476280003786087,0.288680016994476,"inertial",220
"221",-1.09909057617188,-0.02899169921875,0.0897216796875,0.118580006062984,0.186920166015625,-0.00750732421875,112.72843170166,0.435365289449692,-1.68156242370605,0.987548828125,-0.469700008630753,0.283080011606216,"inertial",221
"222",-1.74209594726562,-0.03680419921875,0.366363525390625,0.118580006062984,0.16448974609375,-0.00311279296875,112.688102722168,0.179244711995125,-2.11979556083679,0.99432373046875,-0.470960021018982,0.283639997243881,"inertial",222
"223",-2.5421142578125,-0.04302978515625,-0.186920166015625,0.113820001482964,0.306549072265625,-0.00396728515625,111.962928771973,0.228559389710426,-2.47977757453918,0.99359130859375,-0.473200023174286,0.282240003347397,"inertial",223
"224",-2.93838500976562,-0.03765869140625,-0.8074951171875,0.113400004804134,0.680389404296875,-0.00390625,111.958587646484,0.225133880972862,-2.17096185684204,0.993408203125,-0.46900001168251,0.281260013580322,"inertial",224
"225",-3.97018432617188,-0.03997802734375,-1.2261962890625,0.109900005161762,0.620574951171875,-0.02313232421875,111.094093322754,1.33984303474426,-2.31661319732666,0.98822021484375,-0.47418001294136,0.284900009632111,"inertial",225
"226",-4.22439575195312,-0.0450439453125,-1.14395141601562,0.109340004622936,0.904693603515625,-0.04022216796875,110.958381652832,2.32360911369324,-2.60448455810547,0.990234375,-0.482859998941422,0.285459995269775,"inertial",226
"227",-4.01504516601562,-0.04583740234375,-1.18133544921875,0.108920000493526,0.6280517578125,-0.07843017578125,110.99772644043,4.55837726593018,-2.67068099975586,0.982666015625,-0.473900020122528,0.283780008554459,"inertial",227
"228",-3.050537109375,-0.06396484375,-1.256103515625,0.107660003006458,0.7177734375,-0.078125,110.832054138184,4.55177116394043,-3.73727226257324,0.979248046875,-0.476980000734329,0.282940000295639,"inertial",228
"229",-2.392578125,-0.03662109375,-2.37014770507812,0.113680005073547,-0.11962890625,-0.0999755859375,111.560653686523,5.74331426620483,-2.11133050918579,0.99334716796875,-0.479220002889633,0.287699997425079,"inertial",229
"230",-3.77578735351562,-0.0355224609375,-0.88226318359375,0.107100002467632,1.4654541015625,-0.10504150390625,110.491600036621,6.14361906051636,-2.0860812664032,0.9752197265625,-0.487480014562607,0.286579996347427,"inertial",230
"231",-1.51031494140625,-0.04254150390625,-1.2860107421875,0.106260001659393,-0.9869384765625,-0.072509765625,110.426536560059,4.10512781143188,-2.41332316398621,1.0093994140625,-0.478240013122559,0.28532001376152,"inertial",231
"232",1.02432250976562,-0.08160400390625,-3.29727172851562,0.105700001120567,-0.201873779296875,-0.04144287109375,110.065414428711,2.37839770317078,-4.69116830825806,0.99444580078125,-0.482020020484924,0.289380013942719,"inertial",232
"233",-0.52337646484375,-0.06646728515625,-1.33834838867188,0.103180006146431,-1.57012939453125,-0.0506591796875,109.458709716797,2.98122787475586,-3.91810154914856,0.970458984375,-0.484820008277893,0.292040020227432,"inertial",233
"234",-1.495361328125,-0.03466796875,-0.441131591796875,0.102760002017021,1.21124267578125,-0.052978515625,109.101051330566,3.05271148681641,-1.99992525577545,0.9927978515625,-0.481180012226105,0.29050001502037,"inertial",234
"235",-2.1533203125,-0.030517578125,-0.351409912109375,0.104019999504089,0.934600830078125,-0.06512451171875,109.701034545898,3.71353006362915,-1.74288296699524,1.0029296875,-0.482300013303757,0.29050001502037,"inertial",235
"236",0.1495361328125,-0.09381103515625,-2.27294921875,0.0981400012969971,-0.01495361328125,-0.06756591796875,108.434951782227,3.96670126914978,-5.52488994598389,0.9698486328125,-0.474460005760193,0.294420003890991,"inertial",236
"237",0.777587890625,-0.06646728515625,-1.9439697265625,0.0953400060534477,-0.58319091796875,-0.04730224609375,108.096122741699,2.74150252342224,-3.85811066627502,0.985595703125,-0.476000010967255,0.291759997606277,"inertial",237
"238",-0.590667724609375,-0.05523681640625,-2.01873779296875,0.0999599993228912,1.23367309570312,-0.092041015625,109.056350708008,5.31608200073242,-3.20120596885681,0.98760986328125,-0.479640007019043,0.289380013942719,"inertial",238
"239",-0.179443359375,-0.0386962890625,-0.411224365234375,0.0973000004887581,-0.10467529296875,-0.0679931640625,108.660163879395,3.94288945198059,-2.24810409545898,0.9857177734375,-0.481460005044937,0.288120001554489,"inertial",239
"240",0.007476806640625,-0.05865478515625,-0.11962890625,0.0985600054264069,0.16448974609375,-0.07208251953125,108.749305725098,4.19543886184692,-3.4220495223999,0.98089599609375,-0.477680027484894,0.290360003709793,"inertial",240
"241",0.01495361328125,-0.0650634765625,-0.5682373046875,0.101500004529953,-0.0897216796875,-0.08428955078125,109.311012268066,4.87995338439941,-3.77873110771179,0.985107421875,-0.469980001449585,0.289660006761551,"inertial",241
"242",0.73272705078125,-0.0460205078125,-1.15142822265625,0.101360000669956,-0.366363525390625,-0.0731201171875,109.200386047363,4.19289350509644,-2.64459276199341,0.996337890625,-0.482300013303757,0.291060000658035,"inertial",242
"243",0.97198486328125,-0.0347900390625,-1.1962890625,0.0996799990534782,-0.73272705078125,-0.06787109375,108.904914855957,3.89701080322266,-2.00106143951416,0.9957275390625,-0.473760008811951,0.291060000658035,"inertial",243
"244",0.964508056640625,-0.05126953125,-0.142059326171875,0.100660003721714,-0.04486083984375,-0.0745849609375,109.231826782227,4.342360496521,-2.99201655387878,0.98089599609375,-0.474880009889603,0.288540005683899,"inertial",244
"245",1.31591796875,-0.0518798828125,-0.261688232421875,0.102340005338192,-0.216827392578125,-0.06134033203125,109.528686523438,3.55202627182007,-3.00943946838379,0.98681640625,-0.470540016889572,0.288540005683899,"inertial",245
"246",1.4654541015625,-0.05718994140625,-1.00189208984375,0.104860000312328,-0.28411865234375,-0.08978271484375,110.270668029785,5.19884634017944,-3.32254981994629,0.985107421875,-0.469980001449585,0.283920019865036,"inertial",246
"247",2.13836669921875,-0.04669189453125,-1.79443359375,0.102620005607605,-0.695343017578125,-0.09075927734375,109.525535583496,5.28138303756714,-2.7258026599884,0.980712890625,-0.470540016889572,0.289380013942719,"inertial",247
"248",2.46734619140625,-0.05316162109375,-0.276641845703125,0.102480001747608,-0.538330078125,-0.0927734375,109.632598876953,5.38348770141602,-3.09549593925476,0.9830322265625,-0.482440024614334,0.28727999329567,"inertial",248
"249",3.289794921875,-0.049072265625,-0.231781005859375,0.105140000581741,-0.52337646484375,-0.07354736328125,109.940864562988,4.24825048446655,-2.84088683128357,0.9888916015625,-0.470540016889572,0.289800018072128,"inertial",249
"250",4.2767333984375,-0.0469970703125,0.73272705078125,0.105840004980564,-0.979461669921875,-0.04681396484375,109.947761535645,2.72522830963135,-2.73899579048157,0.98236083984375,-0.473620027303696,0.291620016098022,"inertial",250
"251",3.62625122070312,-0.044921875,-0.142059326171875,0.109060004353523,-0.710296630859375,-0.025146484375,111.088813781738,1.45605456829071,-2.60256218910217,0.98828125,-0.473760008811951,0.282800018787384,"inertial",251
"252",2.75894165039062,-0.0252685546875,0.19439697265625,0.112280003726482,-0.351409912109375,-0.00396728515625,111.347457885742,0.229502752423286,-1.46192240715027,0.9901123046875,-0.471799999475479,0.28727999329567,"inertial",252
"253",2.40753173828125,-0.0440673828125,0.34393310546875,0.110460005700588,-0.179443359375,0.010498046875,111.088157653809,-0.60494190454483,-2.54027557373047,0.9932861328125,-0.476280003786087,0.286440014839172,"inertial",253
"254",1.18881225585938,-0.03033447265625,-0.88226318359375,0.112280003726482,-0.411224365234375,0.01458740234375,111.394889831543,-0.837907493114471,-1.74281990528107,0.9969482421875,-0.471520006656647,0.286579996347427,"inertial",254
"255",0.0299072265625,-0.0537109375,-0.85235595703125,0.11676000058651,0.46356201171875,-0.03057861328125,112.324775695801,1.77849018573761,-3.12644982337952,0.98333740234375,-0.473060011863708,0.284339994192123,"inertial",255
"256",-0.25421142578125,-0.04986572265625,-0.964508056640625,0.115080006420612,0.0299072265625,-0.0167236328125,111.907653808594,0.967814266681671,-2.88727831840515,0.98870849609375,-0.472640007734299,0.28616002202034,"inertial",256
"257",-0.58319091796875,-0.03778076171875,-2.53463745117188,0.110460005700588,-0.31402587890625,-0.02960205078125,110.520294189453,1.71072924137115,-2.18456268310547,0.99041748046875,-0.472220003604889,0.295120000839233,"inertial",257
"258",-0.186920166015625,-0.03521728515625,-1.80938720703125,0.114240005612373,0.231781005859375,-0.02593994140625,111.801406860352,1.50415062904358,-2.04300785064697,0.98724365234375,-0.469700008630753,0.285600006580353,"inertial",258
"259",-0.859832763671875,-0.0157470703125,0.5682373046875,0.114100001752377,-0.037384033203125,-0.00048828125,111.748199462891,0.0284327510744333,-0.916995406150818,0.98382568359375,-0.478100001811981,0.286020010709763,"inertial",259
"260",-1.31591796875,-0.0472412109375,-0.231781005859375,0.116480000317097,0.456085205078125,-0.02447509765625,112.227104187012,1.41390562057495,-2.73067235946655,0.990478515625,-0.475720018148422,0.285040020942688,"inertial",260
"261",-0.500946044921875,-0.06085205078125,-1.6448974609375,0.118440002202988,0.336456298828125,-0.04681396484375,112.563888549805,2.71073198318481,-3.52845931053162,0.98687744140625,-0.477680027484894,0.285040020942688,"inertial",261
"262",-0.79254150390625,-0.05987548828125,-2.63931274414062,0.113260000944138,0.059814453125,-0.0252685546875,111.271789550781,1.4360693693161,-3.40557789802551,1.00616455078125,-0.471240013837814,0.29092001914978,"inertial",262
"263",-0.73272705078125,-0.03533935546875,-0.43365478515625,0.11438000202179,0.261688232421875,-0.04931640625,111.623847961426,2.84128904342651,-2.03812313079834,0.9930419921875,-0.474460005760193,0.288540005683899,"inertial",263
"264",-1.08413696289062,-0.0406494140625,-0.381317138671875,0.115500003099442,0.515899658203125,-0.01312255859375,111.691772460938,0.753269016742706,-2.33416223526001,0.99725341796875,-0.474460005760193,0.290360003709793,"inertial",264
"265",-1.71966552734375,-0.0386962890625,-1.5850830078125,0.112280003726482,0.22430419921875,-0.0244140625,111.635108947754,1.40580654144287,-2.22921299934387,0.99407958984375,-0.48062002658844,0.283080011606216,"inertial",265
"266",-1.83929443359375,-0.05419921875,-5.0543212890625,0.1083599999547,0.157012939453125,-0.0484619140625,110.703063964844,2.82711744308472,-3.16599345207214,0.9798583984375,-0.477960020303726,0.286720007658005,"inertial",266
"267",-1.1663818359375,-0.0447998046875,-1.02432250976562,0.110880002379417,0.777587890625,-0.0552978515625,110.863632202148,3.22267293930054,-2.61452698707581,0.9810791015625,-0.47544002532959,0.29092001914978,"inertial",267
"268",-1.50283813476562,-0.0736083984375,-3.2000732421875,0.110320001840591,0.179443359375,-0.03143310546875,110.785568237305,1.81424725055695,-4.2538366317749,0.9896240234375,-0.471799999475479,0.290639996528625,"inertial",268
"269",-0.590667724609375,-0.027587890625,-3.34213256835938,0.110320001840591,-0.097198486328125,-0.0533447265625,110.658126831055,3.08885145187378,-1.59919500350952,0.9881591796875,-0.477960020303726,0.292600005865097,"inertial",269
"270",-0.022430419921875,-0.07470703125,-2.16079711914062,0.108079999685287,-0.059814453125,-0.05865478515625,110.326721191406,3.40567469596863,-4.34700155258179,0.9827880859375,-0.473200023174286,0.291759997606277,"inertial",270
"271",-1.2261962890625,-0.03668212890625,-0.91217041015625,0.106260001659393,0.575714111328125,-0.05035400390625,110.047218322754,2.86587953567505,-2.08995628356934,1.00518798828125,-0.472640007734299,0.291200011968613,"inertial",271
"272",-0.49346923828125,-0.073974609375,-2.69912719726562,0.109340004622936,-0.1495361328125,-0.040283203125,110.51692199707,2.33321166038513,-4.29100513458252,0.98590087890625,-0.471799999475479,0.292180001735687,"inertial",272
"273",-1.435546875,-0.0718994140625,-7.66372680664062,0.104860000312328,1.23367309570312,-0.06048583984375,109.466903686523,3.51225519180298,-4.18396663665771,0.98284912109375,-0.470540016889572,0.296660006046295,"inertial",273
"274",-1.12152099609375,-0.0736083984375,-13.1143188476562,0.106260001659393,0.299072265625,-0.07110595703125,109.784454345703,4.16204023361206,-4.32020235061646,0.974365234375,-0.478940010070801,0.295399993658066,"inertial",274
"275",-0.545806884765625,-0.04071044921875,-11.2451171875,0.105000004172325,0.112152099609375,-0.09356689453125,109.610710144043,5.34135007858276,-2.33139181137085,0.99993896484375,-0.472640007734299,0.294699996709824,"inertial",275
"276",0.964508056640625,-0.032958984375,-5.54031372070312,0.10360000282526,-0.0299072265625,-0.09515380859375,109.083374023438,5.55136680603027,-1.92926371097565,0.97845458984375,-0.471520006656647,0.299459993839264,"inertial",276
"277",1.89163208007812,-0.03265380859375,0.13458251953125,0.106960006058216,-0.19439697265625,-0.07318115234375,109.638565063477,4.23031949996948,-1.89137136936188,0.98883056640625,-0.475720018148422,0.299740016460419,"inertial",277
"278",2.65426635742188,-0.055419921875,0.34393310546875,0.104860000312328,-0.725250244140625,-0.04559326171875,109.449928283691,2.66065740585327,-3.23815608024597,0.97955322265625,-0.468580007553101,0.296939998865128,"inertial",278
"279",1.84677124023438,-0.0570068359375,-0.007476806640625,0.102200001478195,-0.276641845703125,-0.04290771484375,108.917770385742,2.48817229270935,-3.30968499183655,0.98577880859375,-0.470400005578995,0.298200011253357,"inertial",279
"280",1.50283813476562,-0.02496337890625,-2.67669677734375,0.105000004172325,0.11962890625,-0.0025634765625,109.653823852539,0.148947194218636,-1.45062017440796,0.98577880859375,-0.465780019760132,0.293999999761581,"inertial",280
"281",1.08413696289062,-0.04437255859375,-1.87667846679688,0.105560004711151,-0.291595458984375,-0.0306396484375,109.375709533691,1.7544242143631,-2.54239845275879,0.99932861328125,-0.471100002527237,0.300160020589828,"inertial",281
"282",0.441131591796875,-0.029541015625,-0.538330078125,0.108220003545284,-0.142059326171875,-0.01763916015625,109.946380615234,1.02187931537628,-1.71181881427765,0.98846435546875,-0.474739998579025,0.298200011253357,"inertial",282
"283",0.291595458984375,-0.02264404296875,0.179443359375,0.109900005161762,0.201873779296875,-0.02593994140625,110.301147460938,1.49474084377289,-1.30522978305817,0.99383544921875,-0.466340005397797,0.297080010175705,"inertial",283
"284",1.1962890625,-0.0479736328125,2.01126098632812,0.108920000493526,0.142059326171875,-0.031494140625,109.682189941406,1.84251463413239,-2.80871367454529,0.97784423828125,-0.470540016889572,0.304500013589859,"inertial",284
"285",-0.755157470703125,-0.0487060546875,2.05612182617188,0.11157999932766,0.9271240234375,-0.0218505859375,110.523597717285,1.27660810947418,-2.84726643562317,0.97930908203125,-0.46900001168251,0.29805999994278,"inertial",285
"286",-0.067291259765625,-0.04119873046875,-1.0467529296875,0.109900005161762,-1.00936889648438,0.0020751953125,110.478340148926,-0.119118340313435,-2.36552476882935,0.997314453125,-0.471240013837814,0.294280022382736,"inertial",286
"287",-1.00189208984375,-0.03936767578125,-2.452392578125,0.109340004622936,-0.418701171875,-0.0303955078125,110.04109954834,1.76121127605438,-2.28240919113159,0.98773193359375,-0.473340004682541,0.299740016460419,"inertial",287
"288",-2.37014770507812,-0.013427734375,-1.92153930664062,0.106960006058216,0.471038818359375,-0.0400390625,109.895889282227,2.30401468276978,-0.773128032684326,0.99505615234375,-0.467739999294281,0.295540004968643,"inertial",288
"289",-1.95144653320312,-0.019775390625,-1.24862670898438,0.102480001747608,0.171966552734375,-0.03289794921875,108.875366210938,1.87928307056427,-1.13014030456543,1.00244140625,-0.468300014734268,0.299740016460419,"inertial",289
"290",-2.41500854492188,-0.04022216796875,-1.0467529296875,0.106680005788803,0.3289794921875,-0.044921875,109.744384765625,2.60073256492615,-2.33088850975037,0.9881591796875,-0.47418001294136,0.297220021486282,"inertial",290
"291",-1.89163208007812,-0.04486083984375,-0.097198486328125,0.104299999773502,0.575714111328125,-0.0650634765625,109.345352172852,3.81861758232117,-2.63774871826172,0.9737548828125,-0.464520007371902,0.297080010175705,"inertial",291
"292",-2.14584350585938,-0.04754638671875,-2.91595458984375,0.10598000138998,0.246734619140625,-0.048095703125,109.363471984863,2.79187607765198,-2.76324677467346,0.985107421875,-0.470960021018982,0.301560014486313,"inertial",292
"293",-3.02810668945312,-0.0458984375,-2.7813720703125,0.10080000013113,0.6280517578125,-0.0484619140625,108.818725585938,2.78088021278381,-2.6367814540863,0.99664306640625,-0.480060011148453,0.302960008382797,"inertial",293
"294",-2.62435913085938,-0.05902099609375,-3.85055541992188,0.102060005068779,0.396270751953125,-0.0797119140625,108.537673950195,4.61192417144775,-3.42423367500305,0.98638916015625,-0.47460001707077,0.304360002279282,"inertial",294
"295",-2.70660400390625,-0.0565185546875,-4.08233642578125,0.0967399999499321,0.34393310546875,-0.07415771484375,107.74755859375,4.29034233093262,-3.27775382995605,0.98687744140625,-0.483000010251999,0.302260011434555,"inertial",295
"296",-1.59255981445312,-0.08123779296875,-5.12161254882812,0.0991200059652328,0.082244873046875,-0.0958251953125,108.314331054688,5.55591011047363,-4.73032855987549,0.98175048828125,-0.481320023536682,0.299459993839264,"inertial",296
"297",-1.854248046875,-0.04833984375,-7.09548950195312,0.101500004529953,0.605621337890625,-0.087646484375,108.522277832031,5.0654559135437,-2.80217981338501,0.98760986328125,-0.479500025510788,0.302960008382797,"inertial",297
"298",-0.545806884765625,-0.0640869140625,-5.682373046875,0.0991200059652328,0.04486083984375,-0.12249755859375,107.992279052734,7.08779621124268,-3.72977995872498,0.98309326171875,-0.47544002532959,0.305200010538101,"inertial",298
"299",-0.246734619140625,-0.0484619140625,-5.48049926757812,0.100239999592304,0,-0.08056640625,107.966598510742,4.64131116867065,-2.79905486106873,0.9912109375,-0.478100001811981,0.309119999408722,"inertial",299
"300",1.0467529296875,-0.0517578125,-2.40005493164062,0.0971600040793419,-0.142059326171875,-0.11761474609375,107.359901428223,6.86133813858032,-3.03535270690918,0.97607421875,-0.478100001811981,0.310800015926361,"inertial",300
"301",1.973876953125,-0.0487060546875,-0.291595458984375,0.101360000669956,-0.2093505859375,-0.0965576171875,108.016967773438,5.55108213424683,-2.81002378463745,0.9923095703125,-0.477680027484894,0.311639994382858,"inertial",301
"302",2.63931274414062,-0.05487060546875,-0.097198486328125,0.0988400056958199,-0.291595458984375,-0.09429931640625,107.83748626709,5.47165393829346,-3.19519972801208,0.98291015625,-0.473480015993118,0.307160019874573,"inertial",302
"303",3.56643676757812,-0.0543212890625,-0.88226318359375,0.0999599993228912,-0.3289794921875,-0.07061767578125,108.212875366211,4.08750772476196,-3.15117025375366,0.9866943359375,-0.476560026407242,0.303800016641617,"inertial",303
"304",3.50662231445312,-0.06500244140625,-2.52716064453125,0.103739999234676,-0.186920166015625,-0.0914306640625,108.661842346191,5.29472732543945,-3.77776384353638,0.98443603515625,-0.466760009527206,0.307160019874573,"inertial",304
"305",4.62814331054688,-0.040283203125,-0.979461669921875,0.104440003633499,-0.49346923828125,-0.0782470703125,108.810859680176,4.53769159317017,-2.34164547920227,0.985107421875,-0.475720018148422,0.306600004434586,"inertial",305
"306",5.00946044921875,-0.05206298828125,-0.710296630859375,0.110320001840591,-0.657958984375,-0.05126953125,109.789611816406,2.97162175178528,-3.02172040939331,0.98626708984375,-0.466340005397797,0.306600004434586,"inertial",306
"307",4.14962768554688,-0.0418701171875,-0.605621337890625,0.109200000762939,-0.276641845703125,-0.0218505859375,109.754028320312,1.26991128921509,-2.43453645706177,0.98480224609375,-0.471520006656647,0.304080009460449,"inertial",307
"308",4.22439575195312,-0.04962158203125,-0.291595458984375,0.109760001301765,-0.201873779296875,-0.02288818359375,109.771896362305,1.3388090133667,-2.90430974960327,0.97808837890625,-0.471940010786057,0.305340021848679,"inertial",308
"309",3.41690063476562,-0.031494140625,-0.3289794921875,0.112980000674725,-0.396270751953125,-0.00640869140625,110.365188598633,0.367295116186142,-1.80531656742096,0.99920654296875,-0.472080022096634,0.304360002279282,"inertial",309
"310",3.08792114257812,-0.03424072265625,-0.007476806640625,0.116200000047684,-0.441131591796875,-0.02294921875,110.687339782715,1.33265340328217,-1.98910534381866,0.98590087890625,-0.468440026044846,0.307720005512238,"inertial",310
"311",3.36456298828125,-0.0279541015625,1.00936889648438,0.113400004804134,-0.411224365234375,-0.01141357421875,110.162246704102,0.65925407409668,-1.61492872238159,0.99151611328125,-0.465780019760132,0.30884000658989,"inertial",311
"312",2.26547241210938,-0.03472900390625,0.904693603515625,0.120540000498295,0.07476806640625,-0.01690673828125,111.623809814453,0.981893241405487,-2.01757192611694,0.98583984375,-0.461020022630692,0.304080009460449,"inertial",312
"313",2.14584350585938,-0.02313232421875,-0.83740234375,0.120540000498295,-0.418701171875,-0.0108642578125,111.408981323242,0.628457009792328,-1.338294506073,0.99017333984375,-0.500640034675598,0.307440012693405,"inertial",313
"314",2.2430419921875,-0.020751953125,-1.07666015625,0.117320001125336,-0.418701171875,-0.00384521484375,111.071044921875,0.220953553915024,-1.19253981113434,0.99688720703125,-0.466060012578964,0.304500013589859,"inertial",314
"315",1.83929443359375,-0.00738525390625,-0.3887939453125,0.119420006871223,-0.37384033203125,-0.008056640625,111.558494567871,0.466802328824997,-0.427915573120117,0.98883056640625,-0.476420015096664,0.302260011434555,"inertial",315
"316",1.21124267578125,-0.00885009765625,0.43365478515625,0.120680004358292,-0.28411865234375,0.00091552734375,111.967628479004,-0.0527014434337616,-0.509454190731049,0.99530029296875,-0.477120012044907,0.299180001020432,"inertial",316
"317",3.24493408203125,-0.022705078125,-0.82244873046875,0.119000002741814,1.31591796875,0.01806640625,111.544006347656,-1.07746374607086,-1.35439550876617,0.9603271484375,-0.472360014915466,0.301420003175735,"inertial",317
"318",0.7476806640625,-0.08056640625,0.0299072265625,0.120820000767708,0.485992431640625,-0.0284423828125,111.778533935547,1.70222306251526,-4.82888174057007,0.95367431640625,-0.471380025148392,0.302400022745132,"inertial",318
"319",1.21871948242188,-0.0345458984375,-2.64678955078125,0.120120003819466,-0.710296630859375,0.00567626953125,111.810623168945,-0.325167655944824,-1.97939240932465,0.99957275390625,-0.475300014019012,0.300160020589828,"inertial",319
"320",0.979461669921875,-0.042236328125,-1.68228149414062,0.123340003192425,-1.30844116210938,-0.0120849609375,112.366676330566,0.695027112960815,-2.42993235588074,0.99530029296875,-0.480900019407272,0.299740016460419,"inertial",320
"321",-0.0299072265625,-0.01373291015625,-1.18881225585938,0.121240004897118,0.216827392578125,-0.02301025390625,111.976119995117,1.32653033733368,-0.791862487792969,0.99359130859375,-0.470540016889572,0.300440013408661,"inertial",321
"322",0.770111083984375,-0.03155517578125,-0.4486083984375,0.118160001933575,-0.2093505859375,0.00115966796875,111.689598083496,-0.0671521052718163,-1.82755482196808,0.98895263671875,-0.469980001449585,0.297080010175705,"inertial",322
"323",-0.695343017578125,-0.052734375,-0.88226318359375,0.123200006783009,0.426177978515625,-0.01641845703125,112.222091674805,0.945938766002655,-3.03995895385742,0.99298095703125,-0.470120012760162,0.301560014486313,"inertial",323
"324",-0.485992431640625,-0.03814697265625,-1.98135375976562,0.120960004627705,-0.04486083984375,-0.03326416015625,112.126083374023,1.94575774669647,-2.23279690742493,0.9783935546875,-0.471520006656647,0.297500014305115,"inertial",324
"325",-0.2093505859375,-0.04248046875,-1.55517578125,0.119840003550053,-0.067291259765625,-0.02484130859375,111.563858032227,1.44281566143036,-2.46860647201538,0.9853515625,-0.471100002527237,0.30324000120163,"inertial",325
"326",-0.186920166015625,-0.036376953125,-0.665435791015625,0.117460004985332,0.201873779296875,-0.02294921875,111.426177978516,1.33098721504211,-2.11061310768127,0.987060546875,-0.468440026044846,0.299320012331009,"inertial",326
"327",0.157012939453125,-0.03656005859375,-0.01495361328125,0.120260000228882,-0.186920166015625,-0.019775390625,112.113807678223,1.13999247550964,-2.10833263397217,0.99310302734375,-0.469700008630753,0.295960009098053,"inertial",327
"328",0.157012939453125,-0.04388427734375,-1.14395141601562,0.114520005881786,0.022430419921875,-0.01806640625,110.777061462402,1.04935956001282,-2.55007815361023,0.9853515625,-0.468860000371933,0.301840007305145,"inertial",328
"329",0.052337646484375,-0.04046630859375,-0.994415283203125,0.119000002741814,0.25421142578125,-0.015380859375,111.681175231934,0.889409303665161,-2.34083271026611,0.98992919921875,-0.471240013837814,0.299320012331009,"inertial",329
"330",0.515899658203125,-0.04071044921875,-0.904693603515625,0.119000002741814,0.16448974609375,-0.03125,111.773551940918,1.81282615661621,-2.36308932304382,0.98651123046875,-0.463540017604828,0.297920018434525,"inertial",330
"331",0.67291259765625,-0.04266357421875,-0.94207763671875,0.115500003099442,-0.112152099609375,-0.01812744140625,111.163520812988,1.05485200881958,-2.48368978500366,0.98358154296875,-0.464520007371902,0.298340022563934,"inertial",331
"332",0.76263427734375,-0.04315185546875,-0.9271240234375,0.118300005793571,-0.007476806640625,-0.03729248046875,111.657356262207,2.16964673995972,-2.51254630088806,0.9833984375,-0.468720018863678,0.297920018434525,"inertial",332
"333",1.02432250976562,-0.03851318359375,-0.40374755859375,0.117880001664162,0.171966552734375,-0.02105712890625,111.386695861816,1.22133696079254,-2.23471260070801,0.9869384765625,-0.465920001268387,0.300999999046326,"inertial",333
"334",1.27105712890625,-0.04217529296875,-0.665435791015625,0.118580006062984,-0.34393310546875,-0.02337646484375,111.511222839355,1.35577535629272,-2.44726037979126,0.98681640625,-0.465780019760132,0.300860017538071,"inertial",334
"335",0.6878662109375,-0.0386962890625,-0.37384033203125,0.121520005166531,-0.067291259765625,-0.0078125,112.031311035156,0.452826142311096,-2.2435245513916,0.98773193359375,-0.466340005397797,0.300300002098083,"inertial",335
"336",0.94207763671875,-0.04876708984375,-0.70281982421875,0.117600001394749,-0.299072265625,-0.0015869140625,111.531784057617,0.0919747352600098,-2.82760429382324,0.98736572265625,-0.471799999475479,0.29805999994278,"inertial",336
"337",0.620574951171875,-0.04522705078125,-0.82244873046875,0.11914000660181,-0.097198486328125,0.01556396484375,111.722747802734,-0.901528060436249,-2.62086462974548,0.988037109375,-0.465640008449554,0.299040019512177,"inertial",337
"338",-0.037384033203125,-0.0458984375,-0.31402587890625,0.117460004985332,0.04486083984375,0.0009765625,111.545272827148,-0.0565693490207195,-2.65971541404724,0.988037109375,-0.467880010604858,0.297500014305115,"inertial",338
"339",-0.07476806640625,-0.04119873046875,-0.55328369140625,0.125579997897148,0.112152099609375,0.00103759765625,112.982452392578,-0.0602363757789135,-2.39243459701538,0.986083984375,-0.473200023174286,0.29610002040863,"inertial",339
"340",-0.485992431640625,-0.03106689453125,-0.650482177734375,0.127680003643036,0.112152099609375,-0.004638671875,113.385223388672,0.266279458999634,-1.78367269039154,0.99761962890625,-0.473480015993118,0.295260012149811,"inertial",340
"341",-0.0897216796875,-0.0291748046875,-0.59814453125,0.123900003731251,-0.28411865234375,-0.00286865234375,112.448715209961,0.164884567260742,-1.67715525627136,0.99639892578125,-0.475720018148422,0.299879997968674,"inertial",341
"342",-0.7177734375,-0.04364013671875,0.381317138671875,0.12432000041008,0.411224365234375,-0.0208740234375,112.960632324219,1.22161448001862,-2.55519413948059,0.9779052734375,-0.47026002407074,0.293440014123917,"inertial",342
"343",0.0299501419067383,-0.03411865234375,0.545806884765625,0.125579997897148,0.31402587890625,-0.014892578125,113.30982208252,0.851114451885223,-1.95040929317474,1.00189208984375,-0.466480016708374,0.292040020227432,"inertial",343
"344",0.31402587890625,-0.045166015625,0.321502685546875,0.121240004897118,0.0299072265625,-0.02447509765625,112.429565429688,1.42419850826263,-2.62966132164001,0.9833984375,-0.46424001455307,0.293720006942749,"inertial",344
"345",0.35888671875,-0.0411376953125,0.35888671875,0.129220008850098,-0.127105712890625,-0.0159912109375,113.418884277344,0.924045979976654,-2.37801480293274,0.9906005859375,-0.461300015449524,0.298340022563934,"inertial",345
"346",0.471038818359375,-0.04547119140625,0.515899658203125,0.123759999871254,0.07476806640625,-0.02117919921875,112.731605529785,1.22971642017365,-2.6415102481842,0.985595703125,-0.467320024967194,0.295399993658066,"inertial",346
"347",1.07666015625,-0.04449462890625,0.994415283203125,0.124180004000664,-0.2392578125,-0.02679443359375,112.466064453125,1.56388866901398,-2.59851717948914,0.98040771484375,-0.462420016527176,0.300300002098083,"inertial",347
"348",1.15142822265625,-0.03936767578125,2.04116821289062,0.11914000660181,-0.10467529296875,-0.02313232421875,112.050170898438,1.3452662229538,-2.29046821594238,0.9842529296875,-0.466200023889542,0.294140011072159,"inertial",348
"349",1.7047119140625,-0.039794921875,3.42437744140625,0.123620003461838,-0.261688232421875,-0.013916015625,112.650619506836,0.806176424026489,-2.30615639686584,0.9881591796875,-0.458080023527145,0.296240001916885,"inertial",349
"350",1.7047119140625,-0.04046630859375,3.60382080078125,0.126980006694794,-0.426177978515625,-0.00830078125,113.310188293457,0.481092005968094,-2.34603404998779,0.98773193359375,-0.455980002880096,0.294699996709824,"inertial",350
"351",1.45797729492188,-0.0467529296875,1.80938720703125,0.1251600086689,-0.201873779296875,-0.00091552734375,113.208541870117,0.052904449403286,-2.70265674591064,0.99041748046875,-0.461020022630692,0.291900008916855,"inertial",351
"352",1.21124267578125,-0.03692626953125,0.426177978515625,0.123060002923012,-0.366363525390625,0.00274658203125,112.693374633789,-0.159663707017899,-2.14709782600403,0.98492431640625,-0.462420016527176,0.294280022382736,"inertial",352
"353",1.00189208984375,-0.03857421875,-0.635528564453125,0.12474000453949,-0.127105712890625,0.0028076171875,113.50163269043,-0.162969395518303,-2.23963403701782,0.986328125,-0.462840020656586,0.286860018968582,"inertial",353
"354",0.85235595703125,-0.02752685546875,-0.538330078125,0.129360005259514,-0.22430419921875,0.00457763671875,114.441833496094,-0.265563100576401,-1.59713780879974,0.98724365234375,-0.456400007009506,0.284620016813278,"inertial",354
"355",0.46356201171875,-0.0318603515625,0.95703125,0.128940001130104,0.067291259765625,0.0086669921875,114.06810760498,-0.505565047264099,-1.85885989665985,0.981689453125,-0.455980002880096,0.288680016994476,"inertial",355
"356",0.530853271484375,-0.0272216796875,0.94207763671875,0.125579997897148,-0.216827392578125,0.00506591796875,114.017921447754,-0.291890352964401,-1.56868064403534,0.9940185546875,-0.45346000790596,0.281819999217987,"inertial",356
"357",0.07476806640625,-0.0411376953125,1.92901611328125,0.123759999871254,-0.007476806640625,0.03179931640625,113.085136413574,-1.84885954856873,-2.39333319664001,0.9842529296875,-0.45948001742363,0.290360003709793,"inertial",357
"358",-0.82244873046875,-0.04290771484375,1.5252685546875,0.125300005078316,0.291595458984375,0.02874755859375,113.462997436523,-1.66225230693817,-2.48249912261963,0.98968505859375,-0.4582200050354,0.288680016994476,"inertial",358
"359",-1.77200317382812,-0.03521728515625,1.72714233398438,0.124880000948906,0.299072265625,0.022216796875,113.741920471191,-1.29352939128876,-2.05124402046204,0.9832763671875,-0.45906001329422,0.283920019865036,"inertial",359
"360",-1.81686401367188,-0.051513671875,1.9140625,0.123479999601841,0.67291259765625,-0.00970458984375,113.289649963379,0.56358003616333,-2.99303936958313,0.9852294921875,-0.457800000905991,0.286860018968582,"inertial",360
"361",-1.07666015625,-0.05279541015625,2.53463745117188,0.1251600086689,0.022430419921875,-0.017578125,113.6337890625,1.02498352527618,-3.08032178878784,0.9810791015625,-0.462140023708344,0.286020010709763,"inertial",361
"362",-0.9271240234375,-0.0677490234375,3.5589599609375,0.126420006155968,0.3887939453125,-0.039306640625,113.670219421387,2.30339741706848,-3.97547101974487,0.974853515625,-0.461440026760101,0.288399994373322,"inertial",362
"363",0.456085205078125,-0.059326171875,4.67300415039062,0.123479999601841,-0.34393310546875,-0.02490234375,113.128227233887,1.44011104106903,-3.43363046646118,0.98876953125,-0.463120013475418,0.289100021123886,"inertial",363
"364",0.657958984375,-0.0767822265625,5.5029296875,0.126280009746552,0.067291259765625,-0.0511474609375,113.967727661133,2.95937633514404,-4.45102643966675,0.98638916015625,-0.463540017604828,0.284060001373291,"inertial",364
"365",2.99819946289062,-0.075439453125,6.6094970703125,0.12236000597477,-1.23367309570312,-0.05401611328125,113.511077880859,3.15871572494507,-4.42035293579102,0.97589111328125,-0.452480018138885,0.281260013580322,"inertial",365
"366",3.2598876953125,-0.07562255859375,9.40582275390625,0.126139998435974,-0.73272705078125,-0.0350341796875,114.028213500977,2.05818724632263,-4.44905376434326,0.971923828125,-0.453320026397705,0.282940000295639,"inertial",366
"367",4.50103759765625,-0.0867919921875,10.9759521484375,0.128519997000694,-0.785064697265625,-0.00518798828125,115.040832519531,0.306396692991257,-5.13274812698364,0.96624755859375,-0.456400007009506,0.275099992752075,"inertial",367
"368",3.37203979492188,-0.11083984375,9.40582275390625,0.128100007772446,-0.35888671875,-0.0076904296875,115.126121520996,0.449425846338272,-6.49145078659058,0.97412109375,-0.456400007009506,0.273140013217926,"inertial",368
"369",4.73281860351562,-0.07244873046875,3.38699340820312,0.131040006875992,-2.25799560546875,0.041748046875,115.989234924316,-2.39306426048279,-4.15894412994385,0.996337890625,-0.457800000905991,0.268800020217896,"inertial",369
"370",3.05801391601562,-0.05743408203125,-0.381317138671875,0.134819999337196,-0.351409912109375,0.0521240234375,116.15454864502,-2.98795819282532,-3.29715943336487,0.9969482421875,-0.452060014009476,0.27454000711441,"inertial",370
"371",3.768310546875,-0.02435302734375,-0.657958984375,0.138319998979568,-0.889739990234375,0.050537109375,117.193214416504,-2.87126398086548,-1.38491058349609,1.00732421875,-0.454580008983612,0.269219994544983,"inertial",371
"372",2.81875610351562,-0.0228271484375,3.31222534179688,0.137340009212494,-1.17385864257812,0.005126953125,117.088394165039,-0.306090593338013,-1.36297345161438,0.95941162109375,-0.455420017242432,0.268519997596741,"inertial",372
"373",3.07296752929688,-0.0196533203125,4.88235473632812,0.138319998979568,-1.02432250976562,0.04510498046875,117.351509094238,-2.62007021903992,-1.1424994468689,0.9854736328125,-0.458360016345978,0.267399996519089,"inertial",373
"374",3.09539794921875,0.060546875,5.263671875,0.13944000005722,-0.58319091796875,0.08966064453125,117.87629699707,-4.94570636749268,3.35001063346863,1.03436279296875,-0.455420017242432,0.263620018959045,"inertial",374
"375",3.27484130859375,-0.002197265625,5.3533935546875,0.142100006341934,0.276641845703125,0.1126708984375,118.364326477051,-6.43584156036377,-0.126040011644363,0.99884033203125,-0.456400007009506,0.263200014829636,"inertial",375
"376",-1.90658569335938,0.00274658203125,-1.36077880859375,0.138879999518394,1.31591796875,0.14935302734375,118.059700012207,-8.47510719299316,0.15700301527977,1.0023193359375,-0.457100003957748,0.260540008544922,"inertial",376
"377",-2.811279296875,-0.02587890625,-8.11233520507812,0.144759997725487,0.844879150390625,0.111328125,118.733764648438,-6.40070152282715,-1.49427235126495,0.9920654296875,-0.457240015268326,0.264039993286133,"inertial",377
"378",-6.07864379882812,-0.052490234375,-15.3797912597656,0.140980005264282,2.01126098632812,0.085693359375,118.048881530762,-5.02824401855469,-3.08940672874451,0.9725341796875,-0.454439997673035,0.26460000872612,"inertial",378
"379",-6.96090698242188,-0.0782470703125,-26.3333129882812,0.13986000418663,1.55517578125,0.07696533203125,117.11449432373,-4.38775300979614,-4.47411060333252,1,-0.455140024423599,0.273140013217926,"inertial",379
"380",-9.47311401367188,-0.08599853515625,-35.4176330566406,0.138319998979568,2.40005493164062,0.00665283203125,116.243942260742,-0.387926608324051,-5.02107524871826,0.97882080078125,-0.45430001616478,0.28056001663208,"inertial",380
"381",-7.88803100585938,-0.05181884765625,-38.9466857910156,0.135519996285439,1.86172485351562,-0.0399169921875,115.147575378418,2.34350490570068,-3.04538774490356,0.9739990234375,-0.458499997854233,0.288680016994476,"inertial",381
"382",-4.83001708984375,-0.13232421875,-37.4363708496094,0.123200006783009,3.27484130859375,-0.16455078125,112.400375366211,9.91837596893311,-8.08332920074463,0.93170166015625,-0.454439997673035,0.298900008201599,"inertial",382
"383",-0.299072265625,-0.08245849609375,-30.6175231933594,0.116900004446507,2.3626708984375,-0.15185546875,110.655197143555,8.87070846557617,-4.86154270172119,0.969482421875,-0.45990002155304,0.310100018978119,"inertial",383
"384",6.10107421875,-0.096923828125,-7.70111083984375,0.123759999871254,0.874786376953125,-0.08184814453125,111.927253723145,5.01074552536011,-5.95959329605103,0.928466796875,-0.453600019216537,0.307440012693405,"inertial",384
"385",5.98892211914062,-0.09552001953125,13.7648010253906,0.126280009746552,1.48788452148438,0.08782958984375,112.202568054199,-5.18678998947144,-5.66563844680786,0.96282958984375,-0.462280005216599,0.309400022029877,"inertial",385
"386",3.23745727539062,-0.075439453125,18.2284545898438,0.130759999155998,4.47860717773438,0.04901123046875,113.249465942383,-2.88445949554443,-4.4480619430542,0.96978759765625,-0.452900022268295,0.304360002279282,"inertial",386
"387",8.77029418945312,-0.0511474609375,16.8826293945312,0.130759999155998,-3.94027709960938,0.02923583984375,113.657569885254,-1.70214951038361,-2.98009300231934,0.98248291015625,-0.456120014190674,0.298480004072189,"inertial",387
"388",6.7889404296875,-0.03143310546875,22.3182678222656,0.1370600014925,-3.94775390625,0.031494140625,114.735801696777,-1.74042272567749,-1.73785066604614,1.0360107421875,-0.447300016880035,0.297500014305115,"inertial",388
"389",7.9852294921875,-0.0404052734375,10.0263977050781,0.144060000777245,-1.854248046875,0.1558837890625,116.857543945312,-8.54944801330566,-2.23318791389465,1.0361328125,-0.450100004673004,0.284480005502701,"inertial",389
"390",4.8150634765625,-0.0576171875,8.66561889648438,0.144199997186661,-0.635528564453125,-0.0059814453125,116.834571838379,0.341558307409286,-3.29196238517761,1.001708984375,-0.453740000724792,0.285040020942688,"inertial",390
"391",5.7421875,-0.08697509765625,-6.53472900390625,0.143639996647835,-2.77389526367188,0.11712646484375,116.453796386719,-6.45963096618652,-4.82287645339966,1.03082275390625,-0.444780021905899,0.288680016994476,"inertial",391
"392",5.30853271484375,-0.07952880859375,-10.1011657714844,0.146439999341965,-4.46365356445312,0.07861328125,116.652961730957,-4.51276636123657,-4.57966089248657,0.99285888671875,-0.452619999647141,0.291759997606277,"inertial",392
"393",1.92153930664062,-0.0093994140625,-11.6413879394531,0.148120000958443,-0.11962890625,0.0318603515625,117.072082519531,-1.70769846439362,-0.503959476947784,1.068603515625,-0.446319997310638,0.289800018072128,"inertial",393
"394",2.32528686523438,-0.0897216796875,-19.5817565917969,0.149520009756088,-1.53274536132812,0.0675048828125,116.781265258789,-4.04776525497437,-5.39688682556152,0.94970703125,-0.447580009698868,0.296240001916885,"inertial",394
"395",0.91217041015625,-0.160400390625,-26.0566711425781,0.15022000670433,1.6748046875,0.13482666015625,116.437469482422,-7.8835973739624,-9.48180675506592,0.96038818359375,-0.443660020828247,0.302120000123978,"inertial",395
"396",0.299072265625,-0.11480712890625,-34.6549987792969,0.144620001316071,1.86172485351562,0.08502197265625,115.042427062988,-4.89297485351562,-6.63804578781128,0.98651123046875,-0.441980004310608,0.309540003538132,"inertial",396
"397",2.99072265625,-0.06549072265625,-36.4045715332031,0.142800003290176,4.1571044921875,0.0496826171875,114.472839355469,-2.88564157485962,-3.80982661247253,0.98345947265625,-0.441980004310608,0.313740015029907,"inertial",397
"398",3.79074096679688,-0.08447265625,-34.4232177734375,0.147280007600784,4.65805053710938,0.02197265625,114.664024353027,-1.32769453525543,-5.11194086074829,0.94427490234375,-0.441420018672943,0.320740014314651,"inertial",398
"399",6.43753051757812,0.009521484375,-27.7165222167969,0.141960009932518,2.48977661132812,-0.0152587890625,112.946929931641,0.866594910621643,0.540804505348206,1.00872802734375,-0.444080024957657,0.335299998521805,"inertial",399
"400",9.08432006835938,0.00164794921875,-22.7145385742188,0.143500000238419,0.79254150390625,-0.02752685546875,112.71117401123,1.56039953231812,0.093439519405365,1.010498046875,-0.440160006284714,0.342860013246536,"inertial",400
"401",10.108642578125,0.03753662109375,-12.8825378417969,0.140980005264282,4.007568359375,-0.0634765625,111.947525024414,3.82748770713806,2.26733469963074,0.94805908203125,-0.444220006465912,0.349860012531281,"inertial",401
"402",12.1348571777344,0.01275634765625,-7.49176025390625,0.143639996647835,0.844879150390625,0.1322021484375,112.450897216797,-7.49643087387085,0.727515280246735,1.00457763671875,-0.434280008077621,0.347620010375977,"inertial",402
"403",8.673095703125,-0.04632568359375,1.62246704101562,0.15022000670433,1.92153930664062,0.06536865234375,113.446891784668,-3.91854047775269,-2.78243613243103,0.95318603515625,-0.435680001974106,0.346359997987747,"inertial",403
"404",14.6395874023438,0.0760498046875,-5.83938598632812,0.155819997191429,-5.04684448242188,0.00872802734375,113.201354980469,-0.539831817150116,2.18634796142578,0.9573974609375,-0.433439999818802,0.348179996013641,"inertial",404
"405",10.6320190429688,-0.0142822265625,-2.58697509765625,0.161700010299683,-1.68228149414062,0.13702392578125,115.034645080566,-7.8374171257019,-0.822068452835083,0.995361328125,-0.427000015974045,0.346220016479492,"inertial",405
"406",9.091796875,0.1383056640625,-7.45437622070312,0.164499998092651,0.40374755859375,0.15447998046875,115.369033813477,-8.89677906036377,8.05643367767334,0.97711181640625,-0.430079996585846,0.346920013427734,"inertial",406
"407",8.86749267578125,0.12164306640625,-0.777587890625,0.163939997553825,-0.904693603515625,0.125244140625,115.401084899902,-6.89132022857666,6.74118328094482,1.02911376953125,-0.421820014715195,0.345239996910095,"inertial",407
"408",7.49176025390625,0.05865478515625,-1.74209594726562,0.167020007967949,2.811279296875,0.14642333984375,115.537223815918,-8.72299671173096,3.5237603187561,0.9525146484375,-0.422800004482269,0.349580019712448,"inertial",408
"409",6.11602783203125,0.044677734375,3.47671508789062,0.172480002045631,1.17385864257812,0.20452880859375,116.062469482422,-11.678126335144,2.58779883384705,0.988525390625,-0.424199998378754,0.352660000324249,"inertial",409
"410",6.37771606445312,0.033447265625,-1.495361328125,0.173040002584457,-0.1495361328125,0.22210693359375,116.454223632812,-13.3219337463379,2.04354548454285,0.9373779296875,-0.418880015611649,0.347760021686554,"inertial",410
"411",0.79254150390625,0.063232421875,-3.14773559570312,0.168280005455017,-2.10098266601562,0.256103515625,115.386032104492,-13.5715827941895,3.41698098182678,1.05902099609375,-0.421680003404617,0.354620009660721,"inertial",411
"412",-0.83740234375,-0.16986083984375,-4.26177978515625,0.175280004739761,1.60751342773438,0.13800048828125,116.823638916016,-8.2749719619751,-10.3124284744263,0.93353271484375,-0.425880014896393,0.346640020608902,"inertial",412
"413",-2.71408081054688,-0.10137939453125,-3.25241088867188,0.179340004920959,2.093505859375,0.14483642578125,117.084167480469,-8.92439556121826,-6.31046390533447,0.916748046875,-0.424480020999908,0.3507000207901,"inertial",413
"414",1.435546875,-0.08697509765625,2.75894165039062,0.17654000222683,-2.452392578125,0.160888671875,116.402404785156,-9.11263084411621,-4.97442197799683,0.999267578125,-0.420560002326965,0.355599999427795,"inertial",414
"415",0.889739990234375,-0.1121826171875,2.31033325195312,0.173880010843277,-1.36825561523438,0.10418701171875,116.013107299805,-6.32869386672974,-6.85859298706055,0.93267822265625,-0.414540022611618,0.356299996376038,"inertial",415
"416",-0.112152099609375,-0.07379150390625,5.323486328125,0.179060012102127,-1.83181762695312,0.2353515625,116.781700134277,-13.1681041717529,-4.20673370361328,1.00323486328125,-0.416780024766922,0.354760020971298,"inertial",416
"417",-0.231781005859375,-0.03009033203125,2.6019287109375,0.179480001330376,-2.2430419921875,0.1820068359375,117.055992126465,-10.4871816635132,-1.75369501113892,0.9827880859375,-0.418880015611649,0.351400017738342,"inertial",417
"418",-2.1533203125,-0.0357666015625,0.800018310546875,0.179340004920959,0.0299072265625,0.2186279296875,117.121307373047,-12.6890249252319,-2.11096572875977,0.9703369140625,-0.425180017948151,0.350140005350113,"inertial",418
"419",-3.03558349609375,-0.04791259765625,1.08413696289062,0.175140008330345,-0.13458251953125,0.1661376953125,116.83317565918,-9.6177339553833,-2.80113101005554,0.979248046875,-0.413560003042221,0.346220016479492,"inertial",419
"420",-3.76083374023438,-0.07806396484375,1.1663818359375,0.173460006713867,-0.411224365234375,0.13995361328125,116.565048217773,-8.56104373931885,-4.81674671173096,0.9263916015625,-0.418320000171661,0.346920013427734,"inertial",420
"421",-4.306640625,-0.027587890625,2.10098266601562,0.171499997377396,-1.74957275390625,0.17205810546875,116.195701599121,-9.78355121612549,-1.58432817459106,0.9974365234375,-0.424760013818741,0.348600000143051,"inertial",421
"422",-3.28231811523438,-0.1007080078125,-4.37393188476562,0.166740000247955,0.142059326171875,0.0263671875,115.724586486816,-1.53032004833221,-5.8565559387207,0.9818115234375,-0.416220009326935,0.346080005168915,"inertial",422
"423",2.6318359375,-0.10455322265625,0.0299072265625,0.171920001506805,-0.620574951171875,-0.010009765625,116.481315612793,0.60717898607254,-6.35531997680664,0.938720703125,-0.422940015792847,0.34510001540184,"inertial",423
"424",3.99261474609375,-0.1126708984375,0.934600830078125,0.17611999809742,-2.81875610351562,0.03271484375,116.934097290039,-1.97455537319183,-6.81920909881592,0.94219970703125,-0.426580011844635,0.346640020608902,"inertial",424
"425",5.90667724609375,-0.08990478515625,6.03378295898438,0.179200008511543,1.35330200195312,0.114990234375,117.479560852051,-6.87071514129639,-5.40576314926147,0.9500732421875,-0.417199999094009,0.344539999961853,"inertial",425
"426",7.20016479492188,-0.06744384765625,10.7516479492188,0.180040001869202,-0.246734619140625,0.1650390625,117.859390258789,-9.92553329467773,-4.10067462921143,0.94073486328125,-0.423220008611679,0.340620011091232,"inertial",426
"427",6.759033203125,-0.046875,8.47122192382812,0.184660002589226,0.471038818359375,0.16021728515625,118.72208404541,-9.30998134613037,-2.74911761283875,0.9761962890625,-0.417199999094009,0.336980015039444,"inertial",427
"428",6.02630615234375,-0.05084228515625,5.46554565429688,0.18367999792099,0.620574951171875,0.139892578125,118.573783874512,-8.16186046600342,-2.98791360855103,0.97406005859375,-0.411320000886917,0.337260007858276,"inertial",428
"429",8.48617553710938,-0.0631103515625,-1.79443359375,0.187179997563362,-0.43365478515625,0.169677734375,119.346313476562,-10.0424833297729,-3.77668595314026,0.9560546875,-0.417900025844574,0.332920014858246,"inertial",429
"430",6.160888671875,-0.04058837890625,-0.897216796875,0.187739998102188,0.306549072265625,0.22308349609375,119.398880004883,-13.1075210571289,-2.42803573608398,0.95721435546875,-0.406139999628067,0.333200007677078,"inertial",430
"431",5.66741943359375,0.0093994140625,3.46923828125,0.190680012106895,-0.94207763671875,0.36175537109375,120.137847900391,-19.7603187561035,0.53480988740921,1.0069580078125,-0.40488001704216,0.328440010547638,"inertial",431
"432",3.94775390625,-0.05682373046875,6.92352294921875,0.19488000869751,-0.7177734375,0.3255615234375,120.607933044434,-18.9287261962891,-3.43157124519348,0.9476318359375,-0.407540023326874,0.329420000314713,"inertial",432
"433",-2.1832275390625,-0.03253173828125,3.22250366210938,0.193760007619858,0.171966552734375,0.30474853515625,120.938209533691,-16.9050922393799,-1.85919189453125,1.002197265625,-0.407540023326874,0.323260009288788,"inertial",433
"434",-2.3028564453125,-0.06121826171875,-2.62435913085938,0.195020005106926,0.2093505859375,0.27215576171875,120.679420471191,-15.7543230056763,-3.63829112052917,0.9627685546875,-0.412019997835159,0.32872000336647,"inertial",434
"435",-4.29916381835938,-0.052734375,-3.42437744140625,0.19166000187397,1.495361328125,0.1522216796875,120.159568786621,-9.10204982757568,-3.18166756629944,0.94866943359375,-0.402779996395111,0.329840004444122,"inertial",435
"436",-3.84307861328125,-0.0364990234375,-1.68228149414062,0.18970000743866,0.95703125,0.1229248046875,119.799621582031,-7.34821081161499,-2.19442009925842,0.9525146484375,-0.407820016145706,0.331239998340607,"inertial",436
"437",-0.485992431640625,-0.04034423828125,0,0.188160002231598,-0.58319091796875,0.07342529296875,119.881866455078,-4.43996143341064,-2.44521713256836,0.94476318359375,-0.406560003757477,0.327460020780563,"inertial",437
"438",1.8841552734375,-0.05712890625,-1.29348754882812,0.18885999917984,-1.03179931640625,0.09783935546875,119.596572875977,-5.55544853210449,-3.25581097602844,1.0042724609375,-0.413700014352798,0.332500010728836,"inertial",438
"439",2.31033325195312,-0.05291748046875,0.665435791015625,0.189980000257492,-0.112152099609375,0.19580078125,119.94091796875,-11.4943103790283,-3.15041708946228,0.96142578125,-0.406560003757477,0.329840004444122,"inertial",439
"440",3.21502685546875,-0.06072998046875,3.55148315429688,0.193060010671616,-0.55328369140625,0.21240234375,120.277549743652,-12.4285850524902,-3.61277532577515,0.96185302734375,-0.407120019197464,0.330680012702942,"inertial",440
"441",1.06918334960938,-0.03228759765625,8.23944091796875,0.192919999361038,-0.635528564453125,0.26678466796875,120.611541748047,-15.3017568588257,-1.89756274223328,0.97454833984375,-0.404740005731583,0.326059997081757,"inertial",441
"442",0.276641845703125,-0.02947998046875,9.81704711914062,0.19404000043869,-0.52337646484375,0.3072509765625,120.920043945312,-17.4471759796143,-1.72801184654236,0.9771728515625,-0.411320000886917,0.32396000623703,"inertial",442
"443",-1.75704956054688,-0.05938720703125,5.69732666015625,0.197820007801056,-0.022430419921875,0.20489501953125,121.788017272949,-11.9672765731812,-3.52217555046082,0.96484375,-0.40530002117157,0.31920000910759,"inertial",443
"444",-2.7813720703125,-0.06500244140625,-3.49166870117188,0.193479999899864,0.500946044921875,0.14862060546875,121.536468505859,-8.82426738739014,-3.89328789710999,0.95513916015625,-0.40572002530098,0.315280020236969,"inertial",444
"445",-2.6318359375,-0.04278564453125,-5.93658447265625,0.193200007081032,1.12152099609375,0.12115478515625,120.963760375977,-7.22511196136475,-2.56600713729858,0.9547119140625,-0.406420022249222,0.321999996900558,"inertial",445
"446",0.216827392578125,-0.0523681640625,-1.0467529296875,0.193340003490448,-0.11962890625,0.11395263671875,120.204063415527,-6.77087306976318,-1.31180441379547,0.9466552734375,-0.410899996757507,0.320600003004074,"inertial",446
"447",1.4056396484375,-0.04815673828125,0.538330078125,0.18970000743866,-0.64300537109375,0.13214111328125,120.481857299805,-7.94638013839722,-2.91590285301208,0.9454345703125,-0.409360021352768,0.322280019521713,"inertial",447
"448",1.59255981445312,-0.0296630859375,3.31222534179688,0.188299998641014,-0.964508056640625,0.21630859375,120.188591003418,-12.53382396698,-1.74702644348145,0.9725341796875,-0.409220010042191,0.323680013418198,"inertial",448
"449",0.67291259765625,-0.01806640625,2.572021484375,0.188720002770424,-0.456085205078125,0.25634765625,120.670013427734,-14.7234964370728,-1.06117713451385,0.975341796875,-0.414680004119873,0.318220019340515,"inertial",449
"450",-1.08413696289062,-0.05548095703125,-0.299072265625,0.18885999917984,-0.3289794921875,0.24627685546875,120.436088562012,-14.0557689666748,-3.23327112197876,0.98211669921875,-0.410199999809265,0.321440011262894,"inertial",450
"451",-1.435546875,-0.0450439453125,-3.50662231445312,0.190820008516312,-0.620574951171875,0.23516845703125,120.993453979492,-13.5690927505493,-2.64966058731079,0.97332763671875,-0.407400012016296,0.317660003900528,"inertial",451
"452",-3.29727172851562,-0.0416259765625,-4.56832885742188,0.190540000796318,0.680389404296875,0.1622314453125,120.647247314453,-9.57504844665527,-2.48070764541626,0.9608154296875,-0.408240020275116,0.321580022573471,"inertial",452
"453",-2.25799560546875,-0.03778076171875,-4.17205810546875,0.18970000743866,0.2691650390625,0.160888671875,120.789291381836,-9.44643020629883,-2.2391529083252,0.96624755859375,-0.410620003938675,0.31836000084877,"inertial",453
"454",-1.68975830078125,-0.0504150390625,-0.0299072265625,0.182840004563332,0.07476806640625,0.15313720703125,119.924041748047,-9.00930309295654,-2.9920449256897,0.96453857421875,-0.411040008068085,0.317660003900528,"inertial",454
"455",-1.12152099609375,-0.052490234375,0.2691650390625,0.1841000020504,-0.067291259765625,0.14459228515625,119.801284790039,-8.56807327270508,-3.13536143302917,0.958251953125,-0.412300020456314,0.321440011262894,"inertial",455
"456",-0.411224365234375,-0.04547119140625,0.9869384765625,0.184799998998642,0.052337646484375,0.1788330078125,120.025054931641,-10.3549489974976,-2.66291785240173,0.9776611328125,-0.417060017585754,0.319759994745255,"inertial",456
"457",-0.590667724609375,-0.05328369140625,-0.037384033203125,0.185500010848045,0.13458251953125,0.17535400390625,120.075492858887,-10.2084865570068,-3.13680052757263,0.9722900390625,-0.41482001543045,0.320320010185242,"inertial",457
"458",-0.994415283203125,-0.0540771484375,-0.814971923828125,0.185920000076294,0.171966552734375,0.177490234375,120.273658752441,-10.4306383132935,-3.21523976325989,0.962646484375,-0.414400011301041,0.318500012159348,"inertial",458
"459",-0.95703125,-0.0579833984375,-1.47293090820312,0.184660002589226,0.485992431640625,0.16021728515625,120.224960327148,-9.45486354827881,-3.45525550842285,0.9603271484375,-0.410199999809265,0.316960006952286,"inertial",459
"460",0.007476806640625,-0.04266357421875,-1.33087158203125,0.187040001153946,-0.5084228515625,0.165771484375,120.118576049805,-9.75467109680176,-2.53586745262146,0.96331787109375,-0.414259999990463,0.322420001029968,"inertial",460
"461",-0.07476806640625,-0.05755615234375,-1.614990234375,0.181859999895096,-0.291595458984375,0.15570068359375,119.660949707031,-9.1897497177124,-3.4285523891449,0.960693359375,-0.412300020456314,0.319340020418167,"inertial",461
"462",-0.142059326171875,-0.02435302734375,-1.02432250976562,0.18970000743866,0.31402587890625,0.16046142578125,120.878158569336,-9.34711265563965,-1.43146860599518,0.97454833984375,-0.413000017404556,0.317239999771118,"inertial",462
"463",-0.022430419921875,-0.028564453125,-0.418701171875,0.18970000743866,-0.157012939453125,0.17034912109375,120.878158569336,-9.90537643432617,-1.67793929576874,0.97509765625,-0.420980006456375,0.317239999771118,"inertial",463
"464",0.276641845703125,-0.04327392578125,0.471038818359375,0.1841000020504,0.179443359375,0.172119140625,119.996154785156,-10.137279510498,-2.57649922370911,0.961669921875,-0.42042002081871,0.318920016288757,"inertial",464
"465",0.299072265625,-0.042236328125,-0.216827392578125,0.182700008153915,-0.19439697265625,0.17962646484375,119.70979309082,-10.3408851623535,-2.4590003490448,0.9835205078125,-0.420700013637543,0.320179998874664,"inertial",465
"466",-0.007476806640625,-0.03411865234375,-2.093505859375,0.183120012283325,-0.299072265625,0.1800537109375,119.77725982666,-10.4915990829468,-2.01100420951843,0.9716796875,-0.419720023870468,0.320040017366409,"inertial",466
"467",-0.695343017578125,-0.03363037109375,-0.575714111328125,0.184380009770393,0.216827392578125,0.16802978515625,119.817329406738,-9.8977575302124,-2.00134038925171,0.96240234375,-0.418880015611649,0.321720004081726,"inertial",467
"468",-0.171966552734375,-0.05322265625,-0.545806884765625,0.183120012283325,0.201873779296875,0.1463623046875,119.929214477539,-8.62248516082764,-3.16093873977661,0.9637451171875,-0.417760014533997,0.318080008029938,"inertial",468
"469",0.530853271484375,-0.0587158203125,-1.02432250976562,0.181859999895096,-0.13458251953125,0.1805419921875,119.823783874512,-10.5723524093628,-3.48003935813904,0.96551513671875,-0.416079998016357,0.317239999771118,"inertial",469
"470",0.142059326171875,-0.04388427734375,-1.1065673828125,0.180179998278618,0.082244873046875,0.17230224609375,119.497459411621,-10.0324306488037,-2.58250832557678,0.97296142578125,-0.420139998197556,0.318500012159348,"inertial",470
"471",-0.082244873046875,-0.02276611328125,-0.059814453125,0.1841000020504,-0.059814453125,0.1717529296875,120.171318054199,-10.0895576477051,-1.35150933265686,0.9649658203125,-0.418600022792816,0.316680014133453,"inertial",471
"472",0.007476806640625,-0.03302001953125,0.351409912109375,0.183820009231567,-0.34393310546875,0.1689453125,120.078544616699,-9.89003944396973,-1.95279598236084,0.96844482421875,-0.413560003042221,0.317380011081696,"inertial",472
"473",-0.530853271484375,-0.05950927734375,-0.16448974609375,0.180460005998611,0.3289794921875,0.1837158203125,119.535606384277,-10.7480955123901,-3.52517080307007,0.96600341796875,-0.413280010223389,0.318500012159348,"inertial",473
"474",-0.441131591796875,-0.0535888671875,-1.42059326171875,0.182000011205673,0.037384033203125,0.17218017578125,119.941329956055,-10.0742750167847,-3.16982221603394,0.9676513671875,-0.41566002368927,0.315980017185211,"inertial",474
"475",-0.112152099609375,-0.041748046875,-1.30096435546875,0.178500011563301,0.22430419921875,0.15155029296875,119.139617919922,-8.87433052062988,-2.46513891220093,0.9697265625,-0.41524001955986,0.320179998874664,"inertial",475
"476",0.097198486328125,-0.03936767578125,-0.299072265625,0.186760008335114,0.13458251953125,0.177734375,120.574096679688,-10.4084148406982,-2.33177852630615,0.966796875,-0.414680004119873,0.316119998693466,"inertial",476
"477",-0.321502685546875,-0.0496826171875,0.112152099609375,0.183820009231567,0.07476806640625,0.17828369140625,120.27702331543,-10.4651613235474,-2.95051789283752,0.96392822265625,-0.414120018482208,0.314860016107559,"inertial",477
"478",-0.5682373046875,-0.0469970703125,-0.665435791015625,0.183960005640984,-0.13458251953125,0.17510986328125,120.307121276855,-10.2513151168823,-2.78214383125305,0.96710205078125,-0.419019997119904,0.314720004796982,"inertial",478
"479",-0.46356201171875,-0.040283203125,-1.24114990234375,0.188299998641014,0.276641845703125,0.17431640625,120.88126373291,-10.186975479126,-2.3799409866333,0.96923828125,-0.417340010404587,0.314860016107559,"inertial",479
"480",-0.94207763671875,-0.04071044921875,-1.23367309570312,0.184940010309219,0.336456298828125,0.15753173828125,120.351089477539,-9.26083850860596,-2.41502690315247,0.96527099609375,-0.422520011663437,0.315840005874634,"inertial",480
"481",-0.16448974609375,-0.0428466796875,-1.05422973632812,0.188020005822182,-0.01495361328125,0.1456298828125,120.422828674316,-8.60379123687744,-2.55141854286194,0.9615478515625,-0.417199999094009,0.320179998874664,"inertial",481
"482",0.456085205078125,-0.0533447265625,-1.21871948242188,0.17892000079155,0.022430419921875,0.1495361328125,119.027137756348,-8.82240009307861,-3.17399120330811,0.96197509765625,-0.420280009508133,0.322420001029968,"inertial",482
"483",0.478515625,-0.03802490234375,-1.32339477539062,0.180880010128021,0.022430419921875,0.15972900390625,119.571151733398,-9.35974979400635,-2.24878287315369,0.96832275390625,-0.42042002081871,0.31878000497818,"inertial",483
"484",0.3887939453125,-0.03228759765625,-0.336456298828125,0.183820009231567,0.07476806640625,0.15643310546875,119.936660766602,-9.12499237060547,-1.89982187747955,0.973388671875,-0.424060016870499,0.31920000910759,"inertial",484
"485",0.95703125,-0.03924560546875,0.13458251953125,0.1841000020504,-0.49346923828125,0.17694091796875,119.920097351074,-10.3336973190308,-2.31783246994019,0.9696044921875,-0.414120018482208,0.319900006055832,"inertial",485
"486",0.770111083984375,-0.0478515625,-0.538330078125,0.189419999718666,-0.35888671875,0.1953125,120.696815490723,-11.4251050949097,-2.83801126480103,0.96527099609375,-0.41566002368927,0.319059997797012,"inertial",486
"487",-0.37384033203125,-0.03216552734375,-1.56265258789062,0.190120011568069,0.082244873046875,0.197998046875,120.537284851074,-11.416446685791,-1.879922747612,0.97998046875,-0.415800005197525,0.322280019521713,"inertial",487
"488",-0.665435791015625,-0.02435302734375,-1.29348754882812,0.187880009412766,0.037384033203125,0.16925048828125,120.602195739746,-9.90278720855713,-1.4393984079361,0.96917724609375,-0.413840025663376,0.317660003900528,"inertial",488
"489",-0.650482177734375,-0.05096435546875,-1.734619140625,0.185640007257462,0.19439697265625,0.1689453125,120.170463562012,-9.93552112579346,-3.02898597717285,0.963134765625,-0.413139998912811,0.319340020418167,"inertial",489
"490",-1.016845703125,-0.0452880859375,-1.42807006835938,0.185780003666878,-0.022430419921875,0.1767578125,120.026268005371,-10.2737665176392,-2.6618344783783,0.97412109375,-0.414680004119873,0.321440011262894,"inertial",490
"491",-0.2691650390625,-0.0565185546875,-2.07107543945312,0.182000011205673,-0.10467529296875,0.1552734375,119.137977600098,-9.19185256958008,-3.37673306465149,0.9578857421875,-0.417480021715164,0.326480001211166,"inertial",491
"492",-0.261688232421875,-0.048583984375,-1.18881225585938,0.18970000743866,-0.112152099609375,0.1536865234375,120.190620422363,-9.1160774230957,-2.90762400627136,0.95654296875,-0.408380001783371,0.326059997081757,"inertial",492
"493",0.22430419921875,-0.0478515625,-0.680389404296875,0.188580006361008,-0.485992431640625,0.17919921875,120.464454650879,-10.429799079895,-2.81737995147705,0.97235107421875,-0.412860006093979,0.320600003004074,"inertial",493
"494",-0.13458251953125,-0.05157470703125,-0.97198486328125,0.185780003666878,-0.201873779296875,0.17791748046875,120.01545715332,-10.3994188308716,-3.04956865310669,0.96807861328125,-0.410620003938675,0.321580022573471,"inertial",494
"495",-0.76263427734375,-0.03643798828125,-1.42059326171875,0.182140007615089,0.366363525390625,0.1390380859375,119.894622802734,-8.21328830718994,-2.16785597801208,0.96258544921875,-0.4096400141716,0.316819995641708,"inertial",495
"496",0.097198486328125,-0.03179931640625,-1.07666015625,0.186340004205704,-0.01495361328125,0.15728759765625,120.187881469727,-9.18884944915771,-1.8741649389267,0.9718017578125,-0.410620003938675,0.320320010185242,"inertial",496
"497",-0.097198486328125,-0.038818359375,0.13458251953125,0.187460005283356,-0.07476806640625,0.16900634765625,120.359184265137,-9.8428201675415,-2.28386616706848,0.97332763671875,-0.411880016326904,0.320040017366409,"inertial",497
"498",0.01495361328125,-0.03973388671875,-0.889739990234375,0.176820009946823,-0.246734619140625,0.15625,119.112487792969,-9.02199172973633,-2.31404519081116,0.9832763671875,-0.419300019741058,0.321426272392273,"inertial",498
"499",-0.0299072265625,-0.03131103515625,-0.605621337890625,0.181859999895096,-0.10467529296875,0.171630859375,119.521133422852,-10.0106906890869,-1.84540700912476,0.9718017578125,-0.416079998016357,0.321160018444061,"inertial",499
"500",-0.16448974609375,-0.0482177734375,-0.770111083984375,0.18367999792099,-0.2392578125,0.16748046875,119.835571289062,-9.8178014755249,-2.8557288646698,0.96661376953125,-0.41566002368927,0.321160018444061,"inertial",500
"501",-0.186920166015625,-0.0474853515625,-1.05422973632812,0.182980000972748,0.2093505859375,0.17431640625,119.490592956543,-10.2308197021484,-2.81810593605042,0.96466064453125,-0.416220009326935,0.32354000210762,"inertial",501
"502",-0.25421142578125,-0.03643798828125,-1.17385864257812,0.180880010128021,-0.1495361328125,0.1729736328125,119.506477355957,-10.0775451660156,-2.14556574821472,0.97259521484375,-0.419300019741058,0.319620013237,"inertial",502
"503",-0.186920166015625,-0.03814697265625,-0.814971923828125,0.180460005998611,0.01495361328125,0.1678466796875,119.353004455566,-9.854905128479,-2.262690782547,0.9654541015625,-0.417340010404587,0.320879995822906,"inertial",503
"504",-0.216827392578125,-0.04290771484375,-0.76263427734375,0.182140007615089,-0.022430419921875,0.169677734375,119.505447387695,-9.91900157928467,-2.53448295593262,0.9693603515625,-0.424199998378754,0.321860015392303,"inertial",504
"505",-0.426177978515625,-0.039306640625,-1.09909057617188,0.17892000079155,0.19439697265625,0.15960693359375,118.995498657227,-9.39229869842529,-2.33464527130127,0.964111328125,-0.416500002145767,0.322840005159378,"inertial",505
"506",-0.70281982421875,-0.03839111328125,-0.814971923828125,0.182000011205673,0.231781005859375,0.17572021484375,119.679916381836,-10.2140130996704,-2.2560703754425,0.9744873046875,-0.417760014533997,0.319340020418167,"inertial",506
"507",-0.680389404296875,-0.03997802734375,-1.33087158203125,0.181440010666847,-0.022430419921875,0.1566162109375,119.647232055664,-9.15201282501221,-2.35689115524292,0.9713134765625,-0.417060017585754,0.31878000497818,"inertial",507
"508",-0.7177734375,-0.04083251953125,-1.15890502929688,0.18129999935627,0.142059326171875,0.1619873046875,119.424057006836,-9.42338848114014,-2.39772796630859,0.97515869140625,-0.419580012559891,0.321440011262894,"inertial",508
"509",-0.142059326171875,-0.04376220703125,-0.889739990234375,0.187040001153946,0.246734619140625,0.15411376953125,120.053909301758,-9.08572578430176,-2.60272693634033,0.96270751953125,-0.41482001543045,0.323260009288788,"inertial",509
"510",-0.052337646484375,-0.04718017578125,-0.800018310546875,0.190120011568069,0.142059326171875,0.15576171875,120.267150878906,-9.14560794830322,-2.79507970809937,0.96636962890625,-0.417620003223419,0.325780004262924,"inertial",510
"511",-0.40374755859375,-0.03131103515625,-0.82244873046875,0.18885999917984,0.11962890625,0.162353515625,120.327445983887,-9.5236644744873,-1.85413479804993,0.96722412109375,-0.423079997301102,0.322840005159378,"inertial",511
"512",-0.142059326171875,-0.0389404296875,-1.18133544921875,0.186620011925697,0.0897216796875,0.14398193359375,120.073486328125,-8.37540531158447,-2.28203463554382,0.9771728515625,-0.419720023870468,0.322280019521713,"inertial",512
"513",0.216827392578125,-0.031005859375,-1.27105712890625,0.18172000348568,0.0897216796875,0.16363525390625,119.78295135498,-9.5069694519043,-1.81841647624969,0.97662353515625,-0.408660024404526,0.317520022392273,"inertial",513
"514",0.097198486328125,-0.04510498046875,-0.680389404296875,0.180600002408028,0.19439697265625,0.15777587890625,119.468444824219,-9.21312236785889,-2.65773916244507,0.9716796875,-0.417760014533997,0.319620013237,"inertial",514
"515",-0.112152099609375,-0.0426025390625,-1.1065673828125,0.185920000076294,0.07476806640625,0.1685791015625,120.077445983887,-9.80783176422119,-2.50388383865356,0.9742431640625,-0.415520012378693,0.321020007133484,"inertial",515
"516",-0.0897216796875,-0.03607177734375,-0.79254150390625,0.183120012283325,-0.11962890625,0.15814208984375,119.701812744141,-9.26736450195312,-2.13298225402832,0.968505859375,-0.415520012378693,0.321020007133484,"inertial",516
"517",-0.052337646484375,-0.0391845703125,-0.657958984375,0.18452000617981,0.16448974609375,0.16033935546875,119.611663818359,-9.40664863586426,-2.32035970687866,0.967041015625,-0.418320000171661,0.324660003185272,"inertial",517
"518",-0.261688232421875,-0.04486083984375,-1.15142822265625,0.18970000743866,0.171966552734375,0.163818359375,120.811462402344,-9.59865379333496,-2.65436267852783,0.9676513671875,-0.4096400141716,0.318080008029938,"inertial",518
"519",-0.201873779296875,-0.0418701171875,-1.54769897460938,0.187739998102188,0.037384033203125,0.1572265625,120.484222412109,-9.22043895721436,-2.47763347625732,0.9676513671875,-0.406139999628067,0.318920016288757,"inertial",519
"520",0.16448974609375,-0.03948974609375,-0.2392578125,0.180320009589195,-0.306549072265625,0.16387939453125,119.238212585449,-9.62049102783203,-2.34091997146606,0.96600341796875,-0.409079998731613,0.322140008211136,"inertial",520
"521",0,-0.0499267578125,0.052337646484375,0.1841000020504,-0.07476806640625,0.16314697265625,119.941787719727,-9.55882358551025,-2.95397520065308,0.967529296875,-0.410899996757507,0.319620013237,"inertial",521
"522",0.13458251953125,-0.04705810546875,-1.2261962890625,0.182980000972748,0.007476806640625,0.17767333984375,119.758377075195,-10.3268642425537,-2.76622915267944,0.97393798828125,-0.414259999990463,0.320040017366409,"inertial",522
